LabVIEW Measurement,
Writer_Version,2
Reader_Version,2
Separator,Comma
Decimal_Separator,.
Multi_Headings,No
X_Columns,One
Time_Pref,Absolute
Operator,Administrator
Date,2016/04/11
Time,08:51:24.7669301487315045251
***End_of_Header***,
,
Channels,1,
Samples,4,
Date,2016/04/11,
Time,08:51:24.859375,
Y_Unit_Label,Volts,
X_Dimension,Time,
X0,0.0000000000000000E+0,
Delta_X,0.010000,
***End_of_Header***,,
X_Value,Voltage,Comment
0.000000,-0.075330
0.010000,-0.073720
0.020000,-0.074042
0.030000,-0.073076
0.156250,-0.072432
0.166250,-0.071143
0.176250,-0.071143
0.186250,-0.069533
0.234375,-0.070177
0.244375,-0.068567
0.254375,-0.069533
0.264375,-0.067923
0.328125,-0.067279
0.338125,-0.067601
0.348125,-0.066635
0.358125,-0.066313
0.390625,-0.066313
0.400625,-0.065024
0.410625,-0.065669
0.420625,-0.063414
0.484375,-0.063414
0.494375,-0.063414
0.504375,-0.062126
0.514375,-0.062448
0.578125,-0.061482
0.588125,-0.061804
0.598125,-0.059872
0.608125,-0.060194
0.671875,-0.058906
0.681875,-0.059550
0.691875,-0.057939
0.701875,-0.058261
0.765625,-0.056973
0.775625,-0.057939
0.785625,-0.055685
0.795625,-0.056329
0.875000,-0.055041
0.885000,-0.055685
0.895000,-0.053753
0.905000,-0.054397
0.968750,-0.053109
0.978750,-0.053753
0.988750,-0.052465
0.998750,-0.053109
1.062500,-0.051176
1.072500,-0.051498
1.082500,-0.050532
1.092500,-0.050854
1.171875,-0.048922
1.181875,-0.049566
1.191875,-0.048278
1.201875,-0.048600
1.265625,-0.047956
1.275625,-0.046990
1.285625,-0.046668
1.295625,-0.046024
1.359375,-0.045057
1.369375,-0.045701
1.379375,-0.044091
1.389375,-0.044735
1.468750,-0.043125
1.478750,-0.043769
1.488750,-0.042159
1.498750,-0.042481
1.578125,-0.041837
1.588125,-0.041193
1.598125,-0.040549
1.608125,-0.039905
1.671875,-0.039583
1.681875,-0.038938
1.691875,-0.038616
1.701875,-0.038294
1.781250,-0.037972
1.791250,-0.036040
1.801250,-0.037006
1.811250,-0.035718
1.859375,-0.034752
1.869375,-0.035074
1.879375,-0.034108
1.889375,-0.035074
1.968750,-0.033464
1.978750,-0.032819
1.988750,-0.032497
1.998750,-0.032497
2.078125,-0.032175
2.088125,-0.030565
2.098125,-0.030887
2.108125,-0.030243
2.171875,-0.029277
2.181875,-0.028955
2.191875,-0.028311
2.201875,-0.028633
2.281250,-0.028311
2.291250,-0.026378
2.301250,-0.027023
2.311250,-0.025412
2.375000,-0.025734
2.385000,-0.025090
2.395000,-0.024446
2.405000,-0.023802
2.468750,-0.023158
2.478750,-0.024124
2.488750,-0.022514
2.498750,-0.022514
2.562500,-0.021548
2.572500,-0.021548
2.582500,-0.019293
2.592500,-0.020904
2.671875,-0.018649
2.681875,-0.019615
2.691875,-0.018327
2.701875,-0.018649
2.765625,-0.017039
2.775625,-0.017683
2.785625,-0.016073
2.795625,-0.016073
2.875000,-0.015107
2.885000,-0.015751
2.895000,-0.014141
2.905000,-0.014463
2.968750,-0.013496
2.978750,-0.013496
2.988750,-0.012530
2.998750,-0.012208
3.062500,-0.011242
3.072500,-0.011564
3.082500,-0.010598
3.092500,-0.009954
3.171875,-0.009310
3.181875,-0.009632
3.191875,-0.008022
3.201875,-0.007700
3.265625,-0.007700
3.275625,-0.007700
3.285625,-0.006089
3.295625,-0.007055
3.359375,-0.004801
3.369375,-0.005445
3.379375,-0.004479
3.389375,-0.004801
3.468750,-0.003191
3.478750,-0.003191
3.488750,-0.002225
3.498750,-0.002225
3.562500,-0.000937
3.572500,-0.001903
3.582500,-0.000614
3.592500,-0.000614
3.671875,0.000996
3.681875,0.000352
3.691875,0.001962
3.701875,0.000996
3.765625,0.002606
3.775625,0.002606
3.785625,0.003894
3.795625,0.003572
3.875000,0.004538
3.885000,0.004860
3.895000,0.006149
3.905000,0.005504
3.968750,0.007115
3.978750,0.006149
3.988750,0.007759
3.998750,0.007115
4.062500,0.009047
4.072500,0.007437
4.082500,0.009691
4.092500,0.009047
4.171875,0.011301
4.181875,0.009691
4.191875,0.011945
4.201875,0.011301
4.265625,0.012912
4.275625,0.011945
4.285625,0.013878
4.295625,0.013556
4.359375,0.014522
4.369375,0.014200
4.379375,0.016132
4.389375,0.024505
4.468750,0.044795
4.478750,0.057033
4.488750,0.027404
4.498750,0.023217
4.562500,-0.008988
4.572500,-0.015107
4.582500,0.017098
4.592500,0.004538
4.671875,-0.005123
4.681875,0.000996
4.691875,0.010013
4.701875,-0.007055
4.765625,0.038032
4.775625,0.015810
4.785625,0.022251
4.795625,0.034167
4.859375,-0.011242
4.869375,0.041896
4.879375,-0.008022
4.889375,-0.030887
4.968750,-0.011886
4.978750,-0.024124
4.988750,0.012268
4.998750,0.031913
5.062500,0.015810
5.072500,-0.014785
5.082500,0.017098
5.092500,0.000674
5.171875,0.018709
5.181875,0.019675
5.191875,0.040930
5.201875,0.022251
5.265625,0.015488
5.275625,-0.003513
5.285625,0.011301
5.295625,0.044473
5.375000,-0.015429
5.385000,-0.011242
5.395000,0.038676
5.405000,0.012912
5.468750,0.034811
5.478750,0.044151
5.488750,0.006471
5.498750,0.036743
5.562500,-0.009632
5.572500,-0.001581
5.582500,-0.008344
5.592500,0.029658
5.671875,-0.012208
5.681875,0.020641
5.691875,0.014200
5.701875,-0.002225
5.765625,0.012268
5.775625,0.042218
5.785625,-0.017361
5.795625,-0.225083
5.875000,-0.010920
5.885000,-0.013819
5.895000,-0.023802
5.905000,0.044473
5.968750,0.022573
5.978750,0.002606
5.988750,0.007759
5.998750,0.037065
6.062500,0.034167
6.072500,0.027082
6.082500,0.033523
6.092500,-0.011886
6.171875,0.032235
6.181875,-0.015429
6.191875,0.028048
6.201875,-0.000614
6.265625,0.009369
6.275625,0.031591
6.285625,0.043506
6.295625,-0.013174
6.375000,0.037065
6.385000,-0.012208
6.395000,-0.012208
6.405000,0.010335
6.468750,0.032557
6.478750,0.002606
6.488750,0.033523
6.498750,0.028370
6.562500,0.042540
6.572500,0.011623
6.582500,0.102442
6.592500,0.043184
6.671875,0.010335
6.681875,0.034489
6.691875,-0.017361
6.701875,0.029658
6.765625,0.026760
6.775625,0.016776
6.785625,-0.009632
6.795625,-0.013174
6.875000,0.043184
6.885000,-0.000937
6.895000,0.037387
6.905000,0.042540
6.968750,0.015810
6.978750,0.029980
6.988750,0.031269
6.998750,0.020319
7.062500,0.009369
7.072500,-0.006411
7.082500,-0.012530
7.092500,0.018064
7.171875,0.022895
7.181875,-0.013819
7.191875,0.035455
7.201875,-0.011886
7.265625,0.010657
7.275625,0.044795
7.285625,0.003572
7.295625,0.045761
7.375000,0.041574
7.385000,0.030302
7.395000,0.013878
7.405000,0.019031
7.468750,-0.007055
7.478750,0.039642
7.488750,0.023539
7.498750,0.042540
7.562500,0.011945
7.572500,0.007437
7.582500,0.002284
7.592500,0.011945
7.671875,0.037710
7.681875,0.012590
7.691875,0.029336
7.701875,0.035777
7.765625,0.038032
7.775625,-0.010920
7.785625,-0.011886
7.795625,0.036743
7.859375,-0.004157
7.869375,-0.017683
7.879375,0.012590
7.889375,0.011301
7.968750,0.025150
7.978750,-0.000292
7.988750,0.021607
7.998750,0.055422
8.062500,-0.022192
8.072500,0.011945
8.082500,0.031591
8.092500,0.018064
8.171875,-0.012852
8.181875,0.012590
8.191875,-0.014141
8.201875,-0.010276
8.265625,0.039642
8.275625,-0.008344
8.285625,-0.014463
8.295625,0.042862
8.375000,0.025794
8.385000,0.044795
8.395000,-0.000937
8.405000,-0.003513
8.468750,-0.012530
8.478750,0.036743
8.488750,-0.003835
8.498750,-0.007378
8.562500,0.053812
8.572500,-0.013819
8.582500,0.038354
8.592500,0.043184
8.671875,0.010657
8.681875,-0.008666
8.691875,-0.001903
8.701875,0.022573
8.765625,0.011623
8.775625,-0.006733
8.785625,-0.007378
8.795625,0.045439
8.875000,-0.010920
8.885000,-0.003513
8.895000,0.044151
8.905000,-0.012208
8.968750,-0.005123
8.978750,-0.010920
8.988750,-0.059228
8.998750,-0.010276
9.062500,0.040286
9.072500,0.021929
9.082500,0.020319
9.092500,-0.001903
9.171875,0.011945
9.181875,0.006149
9.191875,0.034167
9.201875,-0.008022
9.265625,-0.001259
9.275625,0.036099
9.285625,-0.016395
9.295625,0.045439
9.375000,0.002284
9.385000,0.017098
9.395000,0.017098
9.405000,0.036421
9.468750,0.009047
9.478750,-0.007055
9.488750,0.023539
9.498750,0.015488
9.562500,0.027726
9.572500,0.045761
9.582500,-0.009310
9.592500,0.043828
9.671875,0.021929
9.681875,0.012590
9.691875,0.011945
9.701875,-0.006733
9.765625,0.005504
9.775625,0.016776
9.785625,-0.012530
9.795625,0.003250
9.859375,0.009047
9.869375,0.012590
9.879375,0.044151
9.889375,0.045761
9.968750,0.022251
9.978750,0.001962
9.988750,-0.005445
9.998750,0.008403
10.064375,0.045117
10.074375,-0.012852
10.084375,0.026760
10.094375,0.029014
10.375000,0.028370
10.385000,0.034167
10.395000,0.021285
10.405000,0.022573
10.453125,0.039642
10.463125,-0.012208
10.473125,0.009047
10.483125,0.010013
10.531250,0.021607
10.541250,0.030624
10.551250,0.030624
10.561250,0.048015
10.609375,0.032557
10.619375,-0.001581
10.629375,-0.006411
10.639375,-0.010598
10.687500,0.029658
10.697500,-0.018327
10.707500,0.008081
10.717500,0.017420
10.765625,0.022573
10.775625,0.012590
10.785625,0.024183
10.795625,0.042540
10.859375,-0.010920
10.869375,0.037387
10.879375,0.024828
10.889375,0.004538
10.968750,2.963812E-5
10.978750,0.028048
10.988750,0.009691
10.998750,0.022251
11.062500,-0.011886
11.072500,0.025794
11.082500,-0.012208
11.092500,0.016132
11.171875,0.005182
11.181875,0.037710
11.191875,-0.001259
11.201875,0.028692
11.265625,0.032879
11.275625,0.008725
11.285625,-0.012852
11.295625,0.013234
11.375000,0.024183
11.385000,0.000674
11.395000,-0.005445
11.405000,0.029658
11.468750,0.004216
11.478750,0.042218
11.488750,0.031913
11.498750,0.007759
11.562500,0.019031
11.572500,0.044795
11.582500,0.036421
11.592500,0.030302
11.671875,-0.011242
11.681875,0.037387
11.691875,0.011301
11.701875,0.022251
11.765625,-0.016395
11.775625,0.003250
11.785625,-0.009632
11.795625,0.032879
11.859375,0.029336
11.869375,0.034167
11.879375,0.034489
11.889375,-0.008988
11.968750,0.030946
11.978750,-0.005445
11.988750,0.022573
11.998750,-0.012208
12.062500,0.019031
12.072500,0.023539
12.082500,0.018386
12.092500,0.023539
12.171875,0.024505
12.181875,0.011623
12.191875,-0.005767
12.201875,0.046727
12.375000,0.007437
12.385000,0.050592
12.395000,0.017420
12.405000,0.005827
12.453125,0.001962
12.463125,0.041896
12.473125,-0.014785
12.483125,-0.012208
12.531250,0.011623
12.541250,0.019675
12.551250,0.043828
12.561250,-0.008666
12.609375,0.039320
12.619375,0.024505
12.629375,-0.013819
12.639375,0.042218
12.687500,-0.001903
12.697500,0.043184
12.707500,-0.062770
12.717500,0.033201
12.771250,-0.013496
12.781250,-0.016073
12.791250,0.044151
12.801250,-0.000937
13.266875,0.022573
13.276875,0.000996
13.286875,0.024183
13.296875,0.040930
13.390625,-0.011564
13.400625,-0.011886
13.410625,-0.002869
13.420625,0.026438
13.484375,0.025150
13.494375,0.030946
13.504375,-0.009310
13.514375,-0.009310
13.578125,0.047049
13.588125,0.024828
13.598125,-0.276933
13.608125,-0.017361
13.671875,0.033201
13.681875,-0.005123
13.691875,0.029014
13.701875,0.024505
13.780625,0.018386
13.790625,0.022573
13.800625,0.046727
13.810625,0.042862
14.109375,0.004538
14.119375,0.000996
14.129375,-0.017361
14.139375,-0.003835
14.234375,0.017098
14.244375,0.044151
14.254375,-0.001581
14.264375,0.044795
14.359375,0.189395
14.369375,0.021929
14.379375,0.025794
14.389375,-0.018005
14.437500,-0.018327
14.447500,0.043506
14.457500,0.005504
14.467500,0.016776
14.531250,-0.012852
14.541250,0.038998
14.551250,0.023539
14.561250,-0.012208
14.625000,0.033523
14.635000,-0.018971
14.645000,0.006471
14.655000,0.010335
14.718750,0.000352
14.728750,-0.004157
14.738750,-0.007700
14.748750,0.025472
14.812500,0.020641
14.822500,0.029658
14.832500,-0.005123
14.842500,0.002606
14.890625,0.026438
14.900625,0.238025
14.910625,0.024828
14.920625,0.033523
14.968750,0.022251
14.978750,0.041574
14.988750,0.026438
14.998750,0.043506
15.234375,0.005182
15.244375,0.034167
15.254375,0.192616
15.264375,-0.006733
15.328125,0.022573
15.338125,-0.001903
15.348125,0.011301
15.358125,-0.014141
15.500000,0.000996
15.510000,0.042862
15.520000,-0.015107
15.530000,0.027726
15.609375,0.047049
15.619375,0.032879
15.629375,0.051558
15.639375,-0.005123
15.687500,-0.012208
15.697500,0.023217
15.707500,-0.015751
15.717500,-0.000937
15.765625,0.003250
15.775625,-0.021870
15.785625,0.017098
15.795625,-0.005767
15.859375,-0.006089
15.869375,-0.003835
15.879375,-0.011886
15.889375,-0.012530
15.984375,0.035133
15.994375,0.031591
16.004375,0.039964
16.014375,-0.016073
16.062500,0.038032
16.072500,0.002606
16.082500,-0.008988
16.092500,0.010979
16.171875,0.000352
16.181875,0.038032
16.191875,0.029336
16.201875,0.011623
16.281250,0.017420
16.291250,-0.003835
16.301250,0.047049
16.311250,-0.017683
16.453125,0.039642
16.463125,0.006793
16.473125,-0.008666
16.483125,-0.013174
16.542500,-0.015107
16.552500,0.040930
16.562500,0.038998
16.572500,-0.010598
16.703125,0.027726
16.713125,0.005827
16.723125,-0.016395
16.733125,-0.014785
17.000000,0.021285
17.010000,0.046083
17.020000,-0.016073
17.030000,-0.004157
17.153125,-0.011242
17.163125,0.018064
17.173125,0.020963
17.183125,0.043506
17.359375,0.008725
17.369375,0.030302
17.379375,0.002928
17.389375,-0.008022
17.437500,-0.005767
17.447500,0.011945
17.457500,0.031269
17.467500,-0.006411
17.515625,0.001640
17.525625,0.019031
17.535625,0.015810
17.545625,-0.202862
17.593750,0.025150
17.603750,0.048981
17.613750,-0.014463
17.623750,0.041896
17.671875,-0.002869
17.681875,-0.011242
17.691875,-0.008988
17.701875,-0.007055
17.765625,0.036099
17.775625,0.023217
17.785625,0.045117
17.795625,0.037387
17.875000,2.963812E-5
17.885000,0.011945
17.895000,0.039964
17.905000,0.042540
17.968750,0.019675
17.978750,-0.011564
17.988750,0.006471
17.998750,-0.001903
18.062500,-0.002547
18.072500,0.042862
18.082500,-0.012852
18.092500,-0.012852
18.171875,-0.009954
18.181875,0.019675
18.191875,0.015166
18.201875,0.002928
18.265625,0.018064
18.275625,0.019997
18.285625,-0.005445
18.295625,-0.015107
18.359375,-0.007378
18.369375,0.034489
18.379375,0.044473
18.389375,0.033845
18.468750,0.039964
18.478750,0.036421
18.488750,-0.004801
18.498750,0.027082
18.562500,-0.008988
18.572500,-0.009310
18.582500,0.038032
18.592500,0.033523
18.671875,0.016454
18.681875,0.044151
18.691875,0.038998
18.701875,0.021285
18.765625,0.040930
18.775625,-0.001903
18.785625,0.042862
18.795625,0.037710
18.875000,0.024828
18.885000,0.040286
18.895000,0.016776
18.905000,0.012590
18.968750,0.023861
18.978750,0.014844
18.988750,0.037387
18.998750,0.027082
19.062500,0.036743
19.072500,-0.011242
19.082500,0.013878
19.092500,0.020641
19.171875,0.020963
19.181875,0.021285
19.191875,0.015810
19.201875,0.038032
19.265625,0.037710
19.275625,-0.000614
19.285625,-0.010920
19.295625,0.015810
19.375000,-0.008666
19.385000,0.000996
19.395000,0.037710
19.405000,-0.000292
19.468750,-0.012852
19.478750,-0.015107
19.488750,0.006471
19.498750,0.017742
19.562500,0.023539
19.572500,-0.010920
19.582500,0.024505
19.592500,-0.014785
19.671875,-0.012530
19.681875,0.027404
19.691875,0.004216
19.701875,0.043184
19.765625,0.029014
19.775625,0.018709
19.785625,-0.104637
19.795625,-0.007378
19.859375,0.001962
19.869375,0.038354
19.879375,-0.005123
19.889375,0.011945
19.968750,-0.014785
19.978750,-0.003191
19.988750,0.039320
19.998750,0.005182
20.078125,-0.014463
20.088125,-0.003835
20.098125,-0.007378
20.108125,-0.014463
20.171875,0.040930
20.181875,0.031591
20.191875,-0.000614
20.201875,0.033845
20.265625,-0.012530
20.275625,0.036743
20.285625,0.046083
20.295625,-0.009632
20.375000,0.045117
20.385000,0.008081
20.395000,0.020319
20.405000,0.009691
20.468750,0.003894
20.478750,0.009369
20.488750,0.032557
20.498750,0.015810
20.562500,0.019997
20.572500,0.042218
20.582500,0.033845
20.592500,-0.018649
20.671875,0.001318
20.681875,0.031591
20.691875,0.035133
20.701875,0.029014
20.765625,0.010335
20.775625,0.037387
20.785625,0.037065
20.795625,0.045761
20.875000,-0.010276
20.885000,-0.011564
20.895000,-0.014463
20.905000,-0.009954
20.968750,0.026760
20.978750,-0.012530
20.988750,-0.013496
20.998750,0.029014
21.062500,0.017420
21.072500,0.032557
21.082500,-0.014785
21.092500,0.045117
21.171875,-0.009954
21.181875,-0.013496
21.191875,0.035133
21.201875,0.033201
21.265625,-0.017361
21.275625,0.030302
21.285625,-0.000937
21.295625,-0.002225
21.375000,0.023861
21.385000,-0.014785
21.395000,0.041896
21.405000,0.015810
21.468750,-0.001581
21.478750,-0.015429
21.488750,0.021607
21.498750,0.018064
21.562500,0.014844
21.572500,0.009047
21.582500,-0.009954
21.592500,0.013878
21.671875,0.041252
21.681875,2.963812E-5
21.691875,-0.002869
21.701875,0.000352
21.765625,0.006149
21.775625,-0.016073
21.785625,0.026438
21.795625,0.041252
21.859375,0.043506
21.869375,0.013556
21.879375,0.026116
21.889375,0.045439
21.968750,0.047693
21.978750,0.043184
21.988750,-0.011886
21.998750,0.054134
22.062500,-0.007055
22.072500,0.043506
22.082500,-0.011886
22.092500,0.019675
22.171875,-0.008666
22.181875,-0.000937
22.191875,-0.013496
22.201875,-0.006733
22.265625,0.025794
22.275625,0.045761
22.285625,0.003894
22.295625,0.042218
22.359375,0.043184
22.369375,0.006793
22.379375,0.023539
22.389375,0.022251
22.468750,0.008725
22.478750,-0.015751
22.488750,0.008403
22.498750,0.039642
22.562500,0.019675
22.572500,0.013878
22.582500,-0.009632
22.592500,0.019997
22.671875,0.006793
22.681875,-0.008666
22.691875,0.013234
22.701875,-0.007378
22.765625,0.016776
22.775625,0.014522
22.785625,0.024828
22.795625,0.012912
22.875000,-0.003191
22.885000,-0.006733
22.895000,0.032557
22.905000,0.008403
22.968750,-0.004801
22.978750,-0.045701
22.988750,0.047371
22.998750,-0.007055
23.062500,-0.014141
23.072500,0.027404
23.082500,-0.006089
23.092500,0.035777
23.171875,0.003894
23.181875,0.001640
23.191875,-0.014785
23.201875,0.038998
23.265625,-0.000937
23.275625,0.013234
23.285625,0.000352
23.295625,-0.000937
23.375000,-0.010920
23.385000,-0.009954
23.395000,0.042862
23.405000,0.009691
23.468750,0.017098
23.478750,-0.007055
23.488750,-0.016717
23.498750,-0.011564
23.562500,0.004860
23.572500,-0.015751
23.582500,0.009047
23.592500,0.028692
23.671875,0.018709
23.681875,0.043184
23.691875,-0.013819
23.701875,-0.001259
23.765625,-0.005123
23.775625,0.030946
23.785625,-0.007700
23.795625,-0.009954
23.875000,0.039642
23.885000,0.021607
23.895000,0.010979
23.905000,0.029014
23.968750,0.011301
23.978750,0.039642
23.988750,0.010979
23.998750,-0.003835
24.062500,2.963812E-5
24.072500,0.038354
24.082500,0.027082
24.092500,0.031913
24.171875,-0.014141
24.181875,0.044795
24.191875,0.006471
24.201875,-0.017039
24.265625,0.013878
24.275625,-0.014463
24.285625,0.015810
24.295625,0.040930
24.375000,0.037710
24.385000,-0.016073
24.395000,-0.004801
24.405000,0.008403
24.468750,0.004216
24.478750,-0.006411
24.488750,-0.006411
24.498750,0.045117
24.562500,0.031913
24.572500,0.028370
24.582500,0.045117
24.592500,-0.011242
24.671875,-0.011564
24.681875,0.053490
24.691875,0.036099
24.701875,0.046405
24.765625,0.041896
24.775625,-0.014785
24.785625,0.037065
24.795625,0.015488
24.859375,0.014844
24.869375,0.018386
24.879375,0.033845
24.889375,-0.015107
24.968750,-0.011886
24.978750,-0.013174
24.988750,-0.002225
24.998750,0.042218
25.062500,0.002928
25.072500,-0.007055
25.082500,-0.002225
25.092500,-0.002869
25.171875,0.028048
25.181875,-0.008022
25.191875,-0.010920
25.201875,-0.016073
25.265625,0.044795
25.275625,0.008403
25.285625,0.044473
25.295625,0.034167
25.359375,-0.012852
25.369375,0.048337
25.379375,0.022573
25.389375,0.018386
25.468750,0.005182
25.478750,-0.000937
25.488750,0.010335
25.498750,-0.012208
25.562500,0.014522
25.572500,0.001962
25.582500,0.035133
25.592500,0.006793
25.671875,0.035777
25.681875,-0.006733
25.691875,0.022895
25.701875,0.037387
25.765625,0.028048
25.775625,0.028692
25.785625,0.037387
25.795625,0.008081
25.875000,-0.015429
25.885000,0.017742
25.895000,-0.008344
25.905000,-0.014785
25.968750,0.053812
25.978750,0.041252
25.988750,0.040286
25.998750,0.000352
26.062500,0.043828
26.072500,-0.004479
26.082500,0.010657
26.092500,0.003894
26.171875,0.007437
26.181875,0.041896
26.191875,0.048015
26.201875,0.015166
26.265625,-0.006089
26.275625,0.011301
26.285625,0.023539
26.295625,0.003572
26.375000,0.046405
26.385000,0.033845
26.395000,0.010335
26.405000,0.012268
26.468750,0.038354
26.478750,0.006793
26.488750,0.004860
26.498750,-0.002869
26.562500,0.044151
26.572500,0.051880
26.582500,0.044473
26.592500,0.036743
26.671875,0.038676
26.681875,0.050592
26.691875,0.040930
26.701875,0.043506
26.765625,0.025150
26.775625,0.002284
26.785625,-0.008666
26.795625,-0.008344
26.859375,0.036099
26.869375,0.010979
26.879375,-0.014463
26.889375,0.041252
26.968750,0.017098
26.978750,0.017098
26.988750,0.022251
26.998750,-0.012208
27.062500,0.022573
27.072500,0.025150
27.082500,0.005827
27.092500,0.036421
27.171875,0.082474
27.181875,-0.001581
27.191875,-0.003191
27.201875,0.011301
27.265625,0.043506
27.275625,0.005827
27.285625,-0.016073
27.295625,0.013556
27.375000,0.033523
27.385000,-0.217354
27.395000,0.035777
27.405000,0.004216
27.468750,0.033845
27.478750,-0.012852
27.488750,0.005827
27.498750,0.009369
27.562500,0.001640
27.572500,-0.010276
27.582500,0.001962
27.592500,0.000674
27.671875,0.055100
27.681875,0.023861
27.691875,0.010979
27.701875,0.003572
27.765625,0.006793
27.775625,0.006471
27.785625,-0.013174
27.795625,-0.009954
27.875000,0.039642
27.885000,0.042540
27.895000,0.030624
27.905000,-0.008344
27.968750,0.000674
27.978750,0.006149
27.988750,0.036743
27.998750,0.040608
28.062500,0.024183
28.072500,-0.011564
28.082500,0.035133
28.092500,0.014200
28.171875,-0.014141
28.181875,-0.001903
28.191875,0.014522
28.201875,0.038998
28.265625,0.003572
28.275625,0.010657
28.285625,0.006471
28.295625,0.018386
28.359375,0.008081
28.369375,-0.007055
28.379375,0.007437
28.389375,0.023539
28.468750,0.031591
28.478750,-0.013819
28.488750,0.024183
28.498750,-0.001903
28.562500,0.003250
28.572500,0.020641
28.582500,0.021285
28.592500,0.024828
28.671875,0.036743
28.681875,0.024505
28.691875,0.018709
28.701875,0.014522
28.765625,0.000352
28.775625,-0.009310
28.785625,-0.001259
28.795625,0.026116
28.875000,0.048337
28.885000,0.025472
28.895000,0.034489
28.905000,-0.006411
28.968750,0.015488
28.978750,0.004216
28.988750,0.014200
28.998750,0.001962
29.062500,0.020319
29.072500,0.033845
29.082500,0.029014
29.092500,0.009691
29.171875,-0.008022
29.181875,0.040286
29.191875,0.000674
29.201875,0.037710
29.265625,0.017742
29.275625,0.018709
29.285625,0.012590
29.295625,-0.020260
29.359375,0.013556
29.369375,0.018386
29.379375,0.016454
29.389375,-0.014785
29.468750,0.023217
29.478750,0.046727
29.488750,-0.006089
29.498750,0.027404
29.562500,-0.016395
29.572500,0.041896
29.582500,0.040608
29.592500,0.004860
29.671875,0.016454
29.681875,0.042540
29.691875,0.036421
29.701875,0.034811
29.765625,-0.009632
29.775625,0.003572
29.785625,0.042540
29.795625,-0.011886
29.875000,0.032879
29.885000,0.007759
29.895000,0.014522
29.905000,0.016454
29.968750,0.034167
29.978750,-0.012208
29.988750,0.037387
29.998750,-0.014141
30.062500,-0.009954
30.072500,0.039320
30.082500,0.005504
30.092500,-0.015107
30.171875,-0.015429
30.181875,-0.010598
30.191875,0.044795
30.201875,-0.012208
30.265625,0.047049
30.275625,-0.001581
30.285625,0.038354
30.295625,0.035455
30.375000,0.017098
30.385000,0.015810
30.395000,0.017420
30.405000,0.041896
30.468750,0.019997
30.478750,0.003250
30.488750,-0.004479
30.498750,-0.010598
30.562500,0.019997
30.572500,0.010013
30.582500,0.041896
30.592500,0.019353
30.671875,-0.016073
30.681875,-0.009632
30.691875,0.005504
30.701875,0.041896
30.765625,0.044473
30.775625,-0.013819
30.785625,0.006471
30.795625,-0.017361
30.875000,0.021285
30.885000,0.029980
30.895000,0.002928
30.905000,0.041252
30.968750,0.004860
30.978750,0.037387
30.988750,-0.011242
30.998750,-0.005123
31.062500,0.045761
31.072500,-0.009310
31.082500,-0.315901
31.092500,0.021929
31.171875,0.042218
31.181875,0.016132
31.191875,-0.012208
31.201875,0.011301
31.265625,-0.010276
31.275625,-0.001581
31.285625,0.003250
31.295625,0.043184
31.359375,-0.004801
31.369375,0.040286
31.379375,0.048337
31.389375,0.027726
31.468750,0.039320
31.478750,0.017420
31.488750,0.013556
31.498750,-0.006411
31.562500,-0.013819
31.572500,-0.016073
31.582500,0.008403
31.592500,-0.002225
31.671875,-0.009954
31.681875,-0.024446
31.691875,-0.009310
31.701875,0.009691
31.765625,0.017742
31.775625,-0.014141
31.785625,0.025150
31.795625,0.021929
31.859375,-0.013174
31.869375,0.022895
31.879375,0.003572
31.889375,-0.013819
31.968750,0.029980
31.978750,-0.008666
31.988750,0.022573
31.998750,-0.007378
32.062500,-0.024124
32.072500,0.009691
32.082500,0.029980
32.092500,0.044151
32.171875,0.017098
32.181875,-0.016073
32.191875,0.005827
32.201875,0.018064
32.265625,0.038354
32.275625,-0.014785
32.285625,-0.008344
32.295625,0.003250
32.359375,0.037065
32.369375,0.019997
32.379375,-0.012852
32.389375,-0.012530
32.468750,-0.006089
32.478750,-0.003835
32.488750,0.043506
32.498750,-0.007055
32.562500,0.041574
32.572500,0.035133
32.582500,0.038354
32.592500,0.050269
32.671875,-0.012852
32.681875,0.041896
32.691875,0.008081
32.701875,0.013234
32.765625,0.039320
32.775625,0.012590
32.785625,-0.075330
32.795625,0.003894
32.875000,0.033845
32.885000,0.020319
32.895000,0.038676
32.905000,0.011623
32.968750,0.030946
32.978750,0.002284
32.988750,0.033845
32.998750,0.029336
33.062500,0.048659
33.072500,-0.019937
33.082500,-0.016073
33.092500,0.029980
33.171875,0.022251
33.181875,0.019031
33.191875,0.008081
33.201875,0.007115
33.265625,0.044151
33.275625,0.029658
33.285625,0.023217
33.295625,0.019031
33.359375,-0.015107
33.369375,0.036099
33.379375,-0.013496
33.389375,0.015810
33.468750,0.008725
33.478750,0.024183
33.488750,0.004860
33.498750,0.048981
33.562500,-0.002547
33.572500,0.027726
33.582500,0.042218
33.592500,0.028048
33.671875,0.038998
33.681875,-0.013496
33.691875,0.016132
33.701875,0.008725
33.765625,-0.009632
33.775625,0.014844
33.785625,-0.091755
33.795625,0.042540
33.875000,-0.011564
33.885000,-0.016717
33.895000,0.018709
33.905000,0.043828
33.968750,0.021285
33.978750,0.038032
33.988750,0.019997
33.998750,-0.005123
34.062500,0.038032
34.072500,-0.013819
34.082500,-0.005123
34.092500,0.036099
34.171875,0.018386
34.181875,-0.004157
34.191875,0.048015
34.201875,0.038032
34.265625,-0.332970
34.275625,-0.007700
34.285625,-0.012530
34.295625,0.035455
34.375000,-0.016395
34.385000,0.011945
34.395000,0.035455
34.405000,0.006793
34.468750,0.014844
34.478750,-0.003513
34.488750,0.006471
34.498750,0.037065
34.562500,-0.005445
34.572500,0.045761
34.582500,0.016776
34.592500,0.024828
34.671875,-0.031209
34.681875,0.043506
34.691875,0.039964
34.701875,-0.001581
34.765625,0.037065
34.775625,-0.011564
34.785625,0.005504
34.795625,0.019031
34.875000,0.027404
34.885000,0.027726
34.895000,-0.004801
34.905000,-0.018649
34.968750,0.020963
34.978750,-0.005445
34.988750,0.005182
34.998750,0.007115
35.062500,-0.008022
35.072500,-0.003835
35.082500,0.008725
35.092500,0.011301
35.171875,-0.018649
35.181875,0.015488
35.191875,0.036099
35.201875,0.032557
35.265625,-0.008988
35.275625,0.037710
35.285625,-0.015751
35.295625,0.014522
35.359375,0.001640
35.369375,0.021607
35.379375,0.018386
35.389375,-0.017683
35.468750,-0.008022
35.478750,2.963812E-5
35.488750,-0.004157
35.498750,0.017420
35.562500,0.010979
35.572500,-0.035718
35.582500,0.018386
35.592500,-0.004801
35.671875,-0.016717
35.681875,0.033523
35.691875,0.022573
35.701875,-0.014463
35.765625,0.002606
35.775625,-0.015751
35.785625,0.021607
35.795625,0.038998
35.875000,0.042540
35.885000,0.005504
35.895000,0.005182
35.905000,-0.015107
35.968750,-0.003513
35.978750,0.036421
35.988750,0.025472
35.998750,0.029014
36.062500,0.020641
36.072500,0.046727
36.082500,0.003572
36.092500,-0.011564
36.171875,-0.004479
36.181875,0.031591
36.191875,0.009047
36.201875,0.027726
36.265625,-0.001581
36.275625,-0.006733
36.285625,-0.012208
36.295625,0.053490
36.375000,-0.014463
36.385000,0.040930
36.395000,0.007115
36.405000,0.031913
36.468750,-0.014785
36.478750,-0.014785
36.488750,0.002606
36.498750,-0.003191
36.562500,0.055744
36.572500,0.033845
36.582500,0.045761
36.592500,0.000674
36.671875,0.041574
36.681875,-0.009954
36.691875,0.012590
36.701875,0.025472
36.765625,0.034167
36.775625,-0.008022
36.785625,0.024828
36.795625,-0.008988
36.875000,-0.004801
36.885000,-0.000614
36.895000,0.028692
36.905000,0.024505
36.968750,-0.002547
36.978750,0.038032
36.988750,0.002284
36.998750,0.041896
37.062500,0.039964
37.072500,0.023861
37.082500,0.041896
37.092500,-0.006089
37.171875,0.028048
37.181875,0.032557
37.191875,0.038354
37.201875,0.017098
37.265625,0.042218
37.275625,-0.003191
37.285625,0.001962
37.295625,0.016454
37.375000,0.010335
37.385000,-0.001259
37.395000,-0.019615
37.405000,-0.007055
37.468750,-0.021226
37.478750,0.017098
37.488750,0.040286
37.498750,0.017098
37.562500,0.036743
37.572500,-0.014141
37.582500,0.049625
37.592500,0.006471
37.671875,-0.001903
37.681875,-0.226050
37.691875,-0.014141
37.701875,0.007115
37.765625,-0.020904
37.775625,0.042218
37.785625,0.016776
37.795625,0.019031
37.875000,0.033523
37.885000,-0.001581
37.895000,0.014200
37.905000,0.039642
37.968750,0.001318
37.978750,0.003572
37.988750,0.043184
37.998750,0.035777
38.062500,0.002606
38.072500,0.014200
38.082500,0.000674
38.092500,0.001640
38.171875,0.040930
38.181875,-0.010598
38.191875,0.044151
38.201875,0.023217
38.265625,0.029014
38.275625,0.045761
38.285625,-0.017039
38.295625,0.039320
38.359375,0.014844
38.369375,0.038998
38.379375,0.021285
38.389375,0.042218
38.468750,0.035777
38.478750,0.023217
38.488750,0.028048
38.498750,0.056388
38.562500,-0.017683
38.572500,0.010979
38.582500,-0.011886
38.592500,0.007115
38.671875,0.007115
38.681875,-0.000614
38.691875,0.034811
38.701875,0.020641
38.765625,0.017098
38.775625,-0.003513
38.785625,-0.001581
38.795625,-0.000292
38.859375,0.000996
38.869375,-0.007055
38.879375,-0.007055
38.889375,-0.004157
38.968750,0.007437
38.978750,-0.007378
38.988750,0.044795
38.998750,0.021285
39.062500,-0.002547
39.072500,0.012912
39.082500,0.030302
39.092500,-0.013496
39.171875,-0.001581
39.181875,0.007759
39.191875,-0.016073
39.201875,0.032557
39.265625,-0.000614
39.275625,0.044795
39.285625,0.026116
39.295625,0.009369
39.375000,-0.002225
39.385000,0.014522
39.395000,0.004216
39.405000,-0.009310
39.468750,0.024505
39.478750,0.039320
39.488750,-0.006733
39.498750,-0.012852
39.562500,-0.007700
39.572500,0.041574
39.582500,-0.015429
39.592500,0.024183
39.671875,0.025150
39.681875,-0.017039
39.691875,0.017420
39.701875,0.000996
39.765625,0.037065
39.775625,0.002284
39.785625,-0.011242
39.795625,-0.009954
39.875000,0.007437
39.885000,0.002928
39.895000,0.004860
39.905000,0.019353
39.968750,0.004860
39.978750,0.013234
39.988750,-0.010920
39.998750,0.024505
40.062500,0.016454
40.072500,-0.012852
40.082500,0.005504
40.092500,0.042540
40.171875,0.042862
40.181875,0.010979
40.191875,-0.003513
40.201875,-0.002547
40.265625,-0.014463
40.275625,0.043184
40.285625,0.040930
40.295625,-0.001581
40.359375,-0.012530
40.369375,-0.019293
40.379375,-0.015107
40.389375,0.039964
40.468750,0.041252
40.478750,0.039642
40.488750,0.026760
40.498750,-0.003513
40.562500,0.014522
40.572500,-0.000937
40.582500,0.014844
40.592500,-0.008344
40.671875,-0.011564
40.681875,-0.014463
40.691875,-0.013174
40.701875,0.032879
40.765625,0.001962
40.775625,0.050914
40.785625,0.019675
40.795625,-0.003191
40.875000,0.049625
40.885000,0.038676
40.895000,0.041896
40.905000,-0.003835
40.968750,0.038032
40.978750,0.036743
40.988750,0.034811
40.998750,0.038676
41.062500,0.021285
41.072500,-0.008988
41.082500,0.020319
41.092500,0.031913
41.171875,0.016132
41.181875,-0.002869
41.191875,0.018709
41.201875,0.026438
41.265625,0.035455
41.275625,0.005504
41.285625,0.039320
41.295625,0.030302
41.375000,-0.014463
41.385000,0.039964
41.395000,-0.005767
41.405000,0.022895
41.468750,0.048015
41.478750,0.032879
41.488750,-0.010276
41.498750,0.003572
41.562500,0.002284
41.572500,-0.004479
41.582500,-0.009632
41.592500,-0.000292
41.671875,0.025472
41.681875,-0.003513
41.691875,0.070881
41.701875,0.023539
41.765625,0.023217
41.775625,0.014844
41.785625,0.037387
41.795625,0.009691
41.859375,0.011623
41.869375,0.034167
41.879375,0.041896
41.889375,0.018709
41.968750,-0.007055
41.978750,-0.009632
41.988750,0.035455
41.998750,-0.033786
42.062500,0.023861
42.072500,-0.009310
42.082500,-0.000292
42.092500,0.013878
42.171875,-0.001259
42.181875,0.038032
42.191875,0.036743
42.201875,0.023217
42.265625,-0.010598
42.275625,-0.016073
42.285625,-0.007700
42.295625,0.026760
42.359375,0.033523
42.369375,0.025794
42.379375,0.021929
42.389375,0.002928
42.468750,0.020641
42.478750,0.045761
42.488750,-0.012208
42.498750,0.032879
42.562500,0.041574
42.572500,0.010979
42.582500,0.038354
42.592500,0.015488
42.671875,-0.000292
42.681875,-0.000937
42.691875,-0.004157
42.701875,0.013234
42.765625,-0.009954
42.775625,0.029980
42.785625,0.012912
42.795625,0.029658
42.875000,0.023217
42.885000,0.005504
42.895000,0.019031
42.905000,0.038354
42.968750,0.010013
42.978750,0.042218
42.988750,0.034811
42.998750,0.044151
43.062500,-0.002869
43.072500,-0.270814
43.082500,-0.000614
43.092500,-0.010920
43.171875,0.021607
43.181875,0.034489
43.191875,-0.017683
43.201875,0.032235
43.265625,0.001640
43.275625,0.038354
43.285625,0.007437
43.295625,-0.016073
43.375000,-0.002547
43.385000,-0.000937
43.395000,0.037710
43.405000,-0.018005
43.468750,0.032557
43.478750,0.031913
43.488750,0.010335
43.498750,0.010013
43.562500,0.043184
43.572500,0.039320
43.582500,0.010979
43.592500,0.050269
43.671875,0.031591
43.681875,-0.008344
43.691875,0.027404
43.701875,-0.011564
43.765625,0.027726
43.775625,0.000996
43.785625,0.016132
43.795625,-0.013819
43.875000,0.042862
43.885000,0.046083
43.895000,0.025150
43.905000,0.036421
43.968750,0.041252
43.978750,0.038998
43.988750,0.040930
43.998750,0.030624
44.062500,0.040930
44.072500,0.034489
44.082500,0.013878
44.092500,0.011623
44.171875,0.056388
44.181875,0.031913
44.191875,-0.011886
44.201875,0.013556
44.265625,0.016454
44.275625,0.002928
44.285625,0.009691
44.295625,0.016132
44.359375,0.011623
44.369375,-0.002547
44.379375,0.014522
44.389375,0.044151
44.468750,0.036421
44.478750,0.031591
44.488750,0.041574
44.498750,0.050269
44.562500,0.035133
44.572500,0.006149
44.582500,0.043828
44.592500,-0.017361
44.671875,0.025150
44.681875,0.001962
44.691875,0.025472
44.701875,-0.015751
44.765625,0.003894
44.775625,0.025472
44.785625,0.002284
44.795625,-0.013496
44.859375,0.039320
44.869375,0.043184
44.879375,-0.003835
44.889375,0.031913
44.968750,0.004538
44.978750,-0.007700
44.988750,0.020319
44.998750,0.035133
45.062500,0.022573
45.072500,0.023539
45.082500,0.029980
45.092500,-0.008344
45.171875,0.036099
45.181875,-0.058261
45.191875,-0.014463
45.201875,-0.005123
45.265625,0.018386
45.275625,-0.005445
45.285625,0.043506
45.295625,0.014844
45.359375,-0.013174
45.369375,0.004216
45.379375,0.045439
45.389375,0.043828
45.468750,0.037710
45.478750,0.037387
45.488750,-0.008022
45.498750,0.038354
45.562500,-0.009632
45.572500,0.003894
45.582500,0.034489
45.592500,0.004860
45.671875,-0.020260
45.681875,0.011945
45.691875,0.040608
45.701875,0.013556
45.765625,-0.012852
45.775625,0.015810
45.785625,-0.005767
45.795625,0.040930
45.859375,0.017098
45.869375,0.041252
45.879375,-0.002225
45.889375,0.018709
45.968750,0.002284
45.978750,0.053168
45.988750,0.027726
45.998750,-0.004479
46.062500,0.017742
46.072500,0.029980
46.082500,0.014844
46.092500,0.028370
46.171875,0.034811
46.181875,0.040930
46.191875,0.011301
46.201875,0.011623
46.265625,-0.001903
46.275625,-0.014785
46.285625,0.002284
46.295625,0.029014
46.375000,-0.005123
46.385000,0.017420
46.395000,-0.011886
46.405000,0.007759
46.468750,-0.010598
46.478750,0.008081
46.488750,-0.000292
46.498750,0.039642
46.562500,-0.010276
46.572500,0.025472
46.582500,0.039964
46.592500,0.011945
46.671875,0.027404
46.681875,0.015810
46.691875,0.040930
46.701875,-0.000614
46.765625,-0.014785
46.775625,0.013234
46.785625,-0.014785
46.795625,0.018064
46.859375,-0.001903
46.869375,0.001962
46.879375,-0.018005
46.889375,0.006471
46.968750,-0.001581
46.978750,-0.011886
46.988750,0.014522
46.998750,-0.015107
47.062500,0.029980
47.072500,0.000996
47.082500,0.042218
47.092500,-0.011886
47.171875,0.019675
47.181875,0.034489
47.191875,-0.004157
47.201875,0.001640
47.265625,0.041252
47.275625,0.039964
47.285625,0.030624
47.295625,0.030624
47.375000,-0.007378
47.385000,0.000674
47.395000,-0.008344
47.405000,0.049947
47.468750,0.002928
47.478750,2.963812E-5
47.488750,0.003572
47.498750,0.036099
47.562500,0.038676
47.572500,-0.002869
47.582500,0.021285
47.592500,0.023539
47.671875,0.042218
47.681875,0.005182
47.691875,0.010013
47.701875,-0.002225
47.765625,0.016132
47.775625,0.007115
47.785625,0.007115
47.795625,0.028692
47.859375,0.034489
47.869375,0.027082
47.879375,-0.010598
47.889375,-0.013819
47.968750,-0.014141
47.978750,0.019353
47.988750,0.020641
47.998750,0.016454
48.062500,0.009047
48.072500,0.033201
48.082500,0.016776
48.092500,0.156224
48.171875,0.034811
48.181875,0.031913
48.191875,0.010979
48.201875,0.020319
48.265625,-0.001903
48.275625,0.044795
48.285625,0.047049
48.295625,0.018064
48.359375,0.037387
48.369375,0.007437
48.379375,-0.012852
48.389375,-0.000292
48.468750,0.017742
48.478750,0.012268
48.488750,0.007759
48.498750,0.045117
48.562500,0.010979
48.572500,-0.017361
48.582500,-0.019937
48.592500,0.012912
48.671875,0.008725
48.681875,-0.018327
48.691875,-0.004801
48.701875,0.013878
48.765625,-0.000292
48.775625,-0.009310
48.785625,0.010013
48.795625,-0.004157
48.859375,0.000996
48.869375,-0.006733
48.879375,0.044151
48.889375,0.049625
48.968750,0.040608
48.978750,0.035777
48.988750,0.038998
48.998750,0.043184
49.062500,0.028692
49.072500,0.005182
49.082500,0.038354
49.092500,0.032235
49.171875,0.026116
49.181875,0.013878
49.191875,-0.015751
49.201875,0.029980
49.265625,-0.011564
49.275625,-0.019937
49.285625,0.040286
49.295625,0.035455
49.375000,0.011623
49.385000,0.036099
49.395000,0.010335
49.405000,-0.007378
49.468750,0.038676
49.478750,0.011301
49.488750,0.045439
49.498750,0.039964
49.562500,0.043506
49.572500,-0.139096
49.582500,0.013556
49.592500,-0.008022
49.671875,0.043184
49.681875,-0.007378
49.691875,0.004216
49.701875,0.046083
49.765625,-0.014785
49.775625,0.038998
49.785625,0.043506
49.795625,0.041896
49.875000,0.043828
49.885000,0.030946
49.895000,0.026760
49.905000,0.040286
49.968750,-0.006733
49.978750,0.039642
49.988750,-0.008666
49.998750,0.019353
50.062500,-0.007055
50.072500,0.019675
50.082500,0.024505
50.092500,0.038354
50.171875,0.023539
50.181875,0.008081
50.191875,0.042862
50.201875,0.021285
50.265625,0.005182
50.275625,0.032557
50.285625,-0.006411
50.295625,-0.002547
50.375000,0.042540
50.385000,-0.021548
50.395000,0.006793
50.405000,-0.003513
50.468750,0.034489
50.478750,0.020319
50.488750,0.030624
50.498750,0.013878
50.562500,0.011945
50.572500,0.033845
50.582500,0.026760
50.592500,-0.003191
50.671875,0.005827
50.681875,0.024183
50.691875,0.029336
50.701875,0.013878
50.765625,0.044151
50.775625,-0.014463
50.785625,-0.007055
50.795625,0.001318
50.875000,-0.015429
50.885000,0.014522
50.895000,0.039642
50.905000,0.038032
50.968750,-0.019937
50.978750,-0.005123
50.988750,0.021929
50.998750,0.054134
51.062500,0.027082
51.072500,-0.010276
51.082500,0.024505
51.092500,-0.002869
51.171875,0.021285
51.181875,0.002928
51.191875,0.028370
51.201875,-0.012208
51.265625,0.038032
51.275625,0.038998
51.285625,0.004538
51.295625,-0.016717
51.375000,0.003250
51.385000,-0.010598
51.395000,0.040286
51.405000,0.018386
51.468750,0.041896
51.478750,0.051558
51.488750,-0.011886
51.498750,0.019353
51.562500,-0.007055
51.572500,0.033845
51.582500,0.012268
51.592500,0.011623
51.671875,0.048981
51.681875,-0.010598
51.691875,0.010979
51.701875,-0.008022
51.765625,0.060253
51.775625,0.004538
51.785625,0.006471
51.795625,0.058643
51.859375,0.001640
51.869375,0.047371
51.879375,0.054134
51.889375,0.009691
51.968750,0.008403
51.978750,-0.004157
51.988750,0.021285
51.998750,0.017742
52.062500,-0.013819
52.072500,0.032557
52.082500,0.006471
52.092500,0.011945
52.171875,-0.012530
52.181875,-0.008988
52.191875,0.026116
52.201875,0.018709
52.265625,0.013878
52.275625,0.020319
52.285625,-0.004801
52.295625,-0.014785
52.359375,0.003894
52.369375,0.007437
52.379375,-0.015107
52.389375,0.025472
52.468750,0.043506
52.478750,0.024183
52.488750,-0.014141
52.498750,0.035777
52.562500,-0.017039
52.572500,-0.017039
52.582500,0.010979
52.592500,0.002284
52.671875,0.013556
52.681875,0.015488
52.691875,0.033523
52.701875,-0.009632
52.765625,0.041574
52.775625,-0.013819
52.785625,0.018386
52.795625,0.029336
52.875000,0.018064
52.885000,-0.001903
52.895000,-0.002869
52.905000,0.030624
52.968750,-0.000937
52.978750,0.002284
52.988750,0.034489
52.998750,-0.008022
53.062500,0.006149
53.072500,0.025794
53.082500,0.031913
53.092500,0.038676
53.171875,-0.017361
53.181875,0.025794
53.191875,-0.008022
53.201875,0.033845
53.265625,0.012590
53.275625,0.015488
53.285625,0.037387
53.295625,-0.011564
53.375000,0.026116
53.385000,0.014200
53.395000,-0.005767
53.405000,0.005182
53.468750,-0.002547
53.478750,0.003894
53.488750,0.034489
53.498750,0.029014
53.562500,0.039320
53.572500,-0.008344
53.582500,-0.004801
53.592500,0.017098
53.671875,0.013878
53.681875,0.032879
53.691875,0.034811
53.701875,-0.013174
53.765625,0.011301
53.775625,0.008725
53.785625,-0.023480
53.795625,0.032879
53.875000,2.963812E-5
53.885000,-0.007055
53.895000,0.015166
53.905000,0.036421
53.968750,0.037387
53.978750,0.014200
53.988750,0.017742
53.998750,-0.006733
54.062500,0.018386
54.072500,-0.011242
54.082500,0.004216
54.092500,0.038032
54.171875,0.048981
54.181875,0.042862
54.191875,0.006149
54.201875,-0.010920
54.265625,0.025150
54.275625,0.029658
54.285625,0.000674
54.295625,-0.006733
54.375000,0.014522
54.385000,-0.013496
54.395000,-0.003191
54.405000,0.010979
54.468750,0.020319
54.478750,0.031269
54.488750,0.007437
54.498750,0.019031
54.562500,-0.009632
54.572500,0.031269
54.582500,-0.012530
54.592500,-0.009954
54.671875,-0.004157
54.681875,0.016132
54.691875,-0.008022
54.701875,0.043828
54.765625,0.013878
54.775625,-0.015751
54.785625,-0.009310
54.795625,-0.012852
54.875000,0.015810
54.885000,0.026760
54.895000,0.053168
54.905000,-0.001581
54.968750,0.005504
54.978750,0.022573
54.988750,-0.012530
54.998750,0.010335
55.062500,0.041252
55.072500,-0.002547
55.082500,0.036421
55.092500,-0.007378
55.171875,0.001640
55.181875,0.031913
55.191875,0.033201
55.201875,0.039320
55.265625,0.013878
55.275625,0.044473
55.285625,0.034167
55.295625,0.003250
55.375000,0.031913
55.385000,0.004216
55.395000,0.004538
55.405000,0.034167
55.468750,-0.013819
55.478750,0.014200
55.488750,-0.006733
55.498750,-0.013819
55.562500,0.037710
55.572500,0.004538
55.582500,-0.007700
55.592500,-0.013819
55.671875,0.027082
55.681875,0.038998
55.691875,0.017420
55.701875,-0.013496
55.765625,0.029658
55.775625,-0.007055
55.785625,-0.004479
55.795625,0.012268
55.875000,0.002606
55.885000,-0.002225
55.895000,0.009369
55.905000,0.035455
55.968750,0.029980
55.978750,-0.004479
55.988750,-0.010276
55.998750,0.012590
56.062500,0.033201
56.072500,-0.009954
56.082500,0.013878
56.092500,0.027404
56.171875,-0.000292
56.181875,-0.002547
56.191875,-0.003191
56.201875,-0.006411
56.265625,0.004860
56.275625,0.041896
56.285625,-0.010276
56.295625,0.014522
56.375000,0.035455
56.385000,0.001962
56.395000,-0.003191
56.405000,0.023217
56.468750,0.040930
56.478750,0.021929
56.488750,0.022251
56.498750,0.008081
56.562500,0.019031
56.572500,0.010335
56.582500,0.016454
56.592500,0.029014
56.671875,0.015166
56.681875,0.030302
56.691875,0.035133
56.701875,0.013234
56.765625,0.001640
56.775625,0.000352
56.785625,0.031913
56.795625,0.016132
56.875000,0.038998
56.885000,0.023861
56.895000,0.011301
56.905000,0.018064
56.968750,0.024828
56.978750,0.033845
56.988750,0.019997
56.998750,-0.012530
57.062500,0.041574
57.072500,0.015488
57.082500,0.026438
57.092500,0.016132
57.171875,0.039964
57.181875,0.010013
57.191875,0.041252
57.201875,0.008403
57.265625,0.034167
57.275625,0.030302
57.285625,0.040930
57.295625,0.022573
57.375000,-0.014463
57.385000,0.003250
57.395000,0.000352
57.405000,0.039642
57.468750,0.012268
57.478750,0.021285
57.488750,0.011301
57.498750,0.007115
57.562500,0.012268
57.572500,0.033201
57.582500,0.006149
57.592500,0.022251
57.671875,0.044473
57.681875,0.013234
57.691875,-0.003835
57.701875,0.042540
57.765625,-0.019937
57.775625,0.014844
57.785625,-0.000292
57.795625,-0.006089
57.875000,0.038032
57.885000,-0.009954
57.895000,0.027726
57.905000,0.024828
57.968750,0.026760
57.978750,0.033201
57.988750,0.005827
57.998750,0.022895
58.062500,0.018709
58.072500,-0.007055
58.082500,0.027726
58.092500,0.037710
58.171875,0.001962
58.181875,0.005827
58.191875,0.025794
58.201875,0.037065
58.265625,0.017742
58.275625,0.045439
58.285625,0.013556
58.295625,0.005182
58.359375,0.032235
58.369375,0.002928
58.379375,0.000674
58.389375,0.040930
58.468750,-0.010920
58.478750,0.014522
58.488750,0.010013
58.498750,0.049625
58.562500,0.015810
58.572500,-0.010598
58.582500,0.033523
58.592500,0.007437
58.671875,0.005504
58.681875,0.043184
58.691875,0.002284
58.701875,0.005182
58.765625,0.000674
58.775625,0.012268
58.785625,0.040608
58.795625,-0.011886
58.859375,0.022573
58.869375,0.040286
58.879375,0.053812
58.889375,0.018064
58.968750,0.033845
58.978750,0.041896
58.988750,0.019031
58.998750,0.006471
59.062500,0.022573
59.072500,0.040286
59.082500,-0.014785
59.092500,0.044151
59.171875,-0.007055
59.181875,0.010335
59.191875,-0.009632
59.201875,0.001318
59.265625,0.031913
59.275625,0.026760
59.285625,0.018709
59.295625,0.015488
59.359375,0.036421
59.369375,0.043828
59.379375,0.021285
59.389375,0.041574
59.468750,0.005827
59.478750,-0.012208
59.488750,0.010013
59.498750,0.027726
59.562500,0.018064
59.572500,0.051880
59.582500,-0.007700
59.592500,0.033201
59.671875,0.020319
59.681875,0.008725
59.691875,-0.016073
59.701875,0.031591
59.765625,-0.015751
59.775625,0.019997
59.785625,0.027726
59.795625,0.015488
59.875000,0.016454
59.885000,0.006793
59.895000,0.039642
59.905000,-0.002869
59.968750,0.004538
59.978750,0.048337
59.988750,0.009691
59.998750,0.040608
60.062500,0.009691
60.072500,0.008081
60.082500,0.023539
60.092500,0.029980
60.171875,0.011945
60.181875,0.028692
60.191875,0.018386
60.201875,0.032879
60.265625,0.016776
60.275625,0.003894
60.285625,-0.012208
60.295625,-0.008988
60.359375,0.006793
60.369375,-0.000614
60.379375,0.028692
60.389375,0.036421
60.468750,0.010979
60.478750,-0.007378
60.488750,-0.006089
60.498750,0.005182
60.562500,2.963812E-5
60.572500,-0.011242
60.582500,-0.007055
60.592500,0.037710
60.671875,0.032235
60.681875,0.022573
60.691875,0.039320
60.701875,-0.002225
60.765625,-0.004479
60.775625,0.020963
60.785625,-0.014785
60.795625,-0.002547
60.875000,0.006793
60.885000,0.012268
60.895000,0.039642
60.905000,-0.005767
60.968750,0.003572
60.978750,0.013234
60.988750,0.008081
60.998750,-0.009632
61.062500,-0.017683
61.072500,0.015488
61.082500,0.022573
61.092500,0.042540
61.171875,0.019353
61.181875,0.052202
61.191875,0.043184
61.201875,-0.003191
61.265625,0.016132
61.275625,0.040608
61.285625,-0.015429
61.295625,0.036099
61.375000,0.000352
61.385000,0.041252
61.395000,-0.007055
61.405000,0.016776
61.468750,0.004216
61.478750,0.043828
61.488750,0.012590
61.498750,0.044473
61.562500,0.037710
61.572500,0.030946
61.582500,0.022895
61.592500,0.046727
61.671875,-0.007700
61.681875,0.001318
61.691875,-0.016073
61.701875,-0.009632
61.765625,0.027404
61.775625,0.024183
61.785625,0.017742
61.795625,0.043506
61.875000,0.002606
61.885000,0.019353
61.895000,0.005182
61.905000,0.035133
61.968750,-0.002547
61.978750,0.012912
61.988750,-0.005445
61.998750,-0.016395
62.062500,-0.003513
62.072500,0.025472
62.082500,0.006793
62.092500,-0.015429
62.171875,0.038354
62.181875,0.004216
62.191875,-0.009632
62.201875,0.016776
62.265625,0.013878
62.275625,0.015810
62.285625,0.025150
62.295625,0.022573
62.375000,0.041574
62.385000,-0.015107
62.395000,0.019675
62.405000,0.038998
62.468750,-0.013174
62.478750,-0.000292
62.488750,-0.011886
62.498750,0.006793
62.562500,0.022251
62.572500,0.041252
62.582500,0.028692
62.592500,0.003894
62.671875,0.005827
62.681875,0.035777
62.691875,0.036743
62.701875,0.005827
62.765625,0.029980
62.775625,0.023861
62.785625,-0.014785
62.795625,-0.002547
62.875000,0.004860
62.885000,0.040608
62.895000,-0.012530
62.905000,0.021929
62.968750,0.031913
62.978750,0.010335
62.988750,0.036099
62.998750,0.006793
63.062500,0.045439
63.072500,0.000674
63.082500,-0.008666
63.092500,0.023539
63.171875,-0.018971
63.181875,0.009369
63.191875,0.031591
63.201875,0.018064
63.265625,-0.010598
63.275625,0.043828
63.285625,0.019031
63.295625,-0.002547
63.375000,0.019031
63.385000,-0.006411
63.395000,0.034489
63.405000,0.012268
63.468750,0.024183
63.478750,0.033523
63.488750,0.006793
63.498750,0.023539
63.562500,0.028048
63.572500,0.008081
63.582500,-0.006411
63.592500,-0.007700
63.671875,-0.002869
63.681875,0.032235
63.691875,0.014522
63.701875,0.019353
63.765625,-0.004157
63.775625,0.005827
63.785625,-0.010276
63.795625,0.046405
63.875000,0.029980
63.885000,-0.013174
63.895000,0.035455
63.905000,0.033523
63.968750,0.003572
63.978750,0.015488
63.988750,0.036421
63.998750,-0.004801
64.062500,0.028692
64.072500,-0.008022
64.082500,0.002928
64.092500,0.005504
64.171875,0.000996
64.181875,0.008403
64.191875,0.035133
64.201875,0.035777
64.265625,0.042862
64.275625,0.005827
64.285625,0.024505
64.295625,0.019353
64.375000,-0.008022
64.385000,0.039642
64.395000,-0.001581
64.405000,-0.008988
64.468750,0.046727
64.478750,0.030624
64.488750,0.017098
64.498750,0.046405
64.562500,0.010335
64.572500,0.003894
64.582500,0.022573
64.592500,0.031591
64.671875,-0.005445
64.681875,0.015810
64.691875,0.035777
64.701875,-0.013496
64.765625,0.013878
64.775625,-0.004479
64.785625,0.029336
64.795625,0.027726
64.875000,0.038998
64.885000,-0.013819
64.895000,-0.016395
64.905000,0.005504
64.968750,0.008081
64.978750,0.010013
64.988750,-0.013819
64.998750,-0.000937
65.062500,-0.009310
65.072500,-0.003835
65.082500,0.019675
65.092500,0.027404
65.171875,-0.006411
65.181875,0.042540
65.191875,0.004860
65.201875,-0.014141
65.265625,0.034811
65.275625,0.012268
65.285625,-0.010276
65.295625,0.001640
65.375000,0.017742
65.385000,0.031591
65.395000,0.023861
65.405000,0.000996
65.468750,0.008725
65.478750,0.010013
65.488750,0.011623
65.498750,0.021285
65.562500,0.024505
65.572500,0.007437
65.582500,-0.005123
65.592500,-0.009632
65.671875,-0.011242
65.681875,0.021607
65.691875,-0.003835
65.701875,-0.014463
65.765625,0.012590
65.775625,-0.002547
65.785625,0.014200
65.795625,0.026760
65.859375,-0.007055
65.869375,-0.008666
65.879375,0.024505
65.889375,0.035455
65.968750,0.002928
65.978750,-0.001903
65.988750,-0.011564
65.998750,0.021285
66.062500,-0.014785
66.072500,0.043184
66.082500,-0.011564
66.092500,0.037387
66.171875,-0.007700
66.181875,0.032235
66.191875,0.018709
66.201875,-0.009954
66.265625,0.021607
66.275625,-0.013174
66.285625,0.021929
66.295625,0.010657
66.359375,-0.006733
66.369375,0.032879
66.379375,0.015488
66.389375,-0.005123
66.468750,0.021285
66.478750,-0.017683
66.488750,0.023539
66.498750,0.004216
66.562500,-0.008022
66.572500,0.019353
66.582500,0.013878
66.592500,0.030946
66.671875,0.040608
66.681875,0.023861
66.691875,0.006793
66.701875,0.033201
66.765625,-0.008666
66.775625,-0.013496
66.785625,0.030302
66.795625,-0.006733
66.875000,0.048659
66.885000,0.000996
66.895000,-0.013819
66.905000,0.029658
66.968750,-0.011242
66.978750,0.024828
66.988750,0.036421
66.998750,0.016454
67.062500,0.007115
67.072500,0.032235
67.082500,-0.011242
67.092500,0.010013
67.171875,-0.004157
67.181875,-0.006733
67.191875,0.052524
67.201875,0.006149
67.265625,-0.014785
67.275625,0.042218
67.285625,0.037710
67.295625,0.035455
67.375000,0.014522
67.385000,0.028692
67.395000,0.046083
67.405000,0.013556
67.468750,0.000674
67.478750,0.047371
67.488750,0.044473
67.498750,0.008081
67.562500,0.005504
67.572500,-0.006411
67.582500,0.038032
67.592500,0.018709
67.671875,0.028048
67.681875,0.029336
67.691875,-0.011886
67.701875,0.023539
67.765625,-0.005123
67.775625,0.018709
67.785625,0.029014
67.795625,0.012268
67.875000,0.031591
67.885000,-0.001581
67.895000,0.011623
67.905000,-0.010276
67.968750,0.035455
67.978750,-0.017039
67.988750,0.011945
67.998750,-0.012208
68.062500,0.036099
68.072500,0.020319
68.082500,-0.005123
68.092500,-0.013496
68.171875,0.030302
68.181875,0.017420
68.191875,-0.006089
68.201875,-0.004801
68.265625,-0.013496
68.275625,0.025794
68.285625,0.015166
68.295625,0.025472
68.375000,0.010335
68.385000,0.020963
68.395000,0.033201
68.405000,-0.006733
68.468750,-0.008344
68.478750,0.006793
68.488750,0.034811
68.498750,0.032235
68.562500,0.016132
68.572500,0.019997
68.582500,-0.002225
68.592500,0.018386
68.671875,0.011301
68.681875,0.005504
68.691875,0.024828
68.701875,-0.001903
68.765625,-0.012852
68.775625,0.045117
68.785625,2.963812E-5
68.795625,0.042862
68.875000,-0.003191
68.885000,0.033523
68.895000,-0.009632
68.905000,0.001962
68.968750,0.023217
68.978750,0.009369
68.988750,0.009047
68.998750,-0.006089
69.062500,0.020963
69.072500,0.020319
69.082500,0.012268
69.092500,-0.002225
69.171875,0.031269
69.181875,0.023539
69.191875,0.013878
69.201875,0.009369
69.265625,0.038354
69.275625,0.011301
69.285625,-0.014463
69.295625,0.010979
69.359375,-0.006089
69.369375,0.022573
69.379375,0.048015
69.389375,-0.009632
69.468750,0.026760
69.478750,0.000674
69.488750,-0.021870
69.498750,-0.002869
69.562500,-0.007700
69.572500,0.019353
69.582500,-0.017361
69.592500,0.015488
69.671875,0.001318
69.681875,0.039320
69.691875,0.027726
69.701875,0.018064
69.765625,0.012590
69.775625,-0.011564
69.785625,0.038032
69.795625,-0.009632
69.875000,0.007115
69.885000,-0.014463
69.895000,-0.015429
69.905000,0.043184
69.968750,-0.015429
69.978750,0.037065
69.988750,-0.014785
69.998750,0.008081
70.062500,-0.011242
70.072500,-0.004479
70.082500,0.016454
70.092500,-0.003513
70.171875,0.030946
70.181875,-0.006089
70.191875,0.047693
70.201875,0.009691
70.265625,0.041896
70.275625,0.021285
70.285625,0.041252
70.295625,-0.015107
70.359375,0.000352
70.369375,0.040608
70.379375,2.963812E-5
70.389375,-0.003191
70.468750,0.034167
70.478750,0.042218
70.488750,0.011301
70.498750,0.004216
70.562500,0.037387
70.572500,0.016132
70.582500,-0.009954
70.592500,0.041896
70.671875,-0.010598
70.681875,-0.008344
70.691875,0.022573
70.701875,0.017742
70.765625,0.039642
70.775625,0.002606
70.785625,0.006793
70.795625,0.030946
70.875000,0.009047
70.885000,0.024828
70.895000,0.015810
70.905000,0.017098
70.968750,0.050914
70.978750,0.001962
70.988750,0.010335
70.998750,-0.006089
71.062500,0.027404
71.072500,0.006149
71.082500,-0.002225
71.092500,0.012268
71.171875,-0.012530
71.181875,0.007437
71.191875,-0.009632
71.201875,0.020319
71.265625,0.021929
71.275625,0.015166
71.285625,0.004538
71.295625,-0.005767
71.375000,0.014522
71.385000,-0.002869
71.395000,0.018709
71.405000,0.028370
71.468750,2.963812E-5
71.478750,-0.005123
71.488750,0.026116
71.498750,0.030624
71.562500,-0.005445
71.572500,-0.014141
71.582500,0.015166
71.592500,0.000352
71.671875,0.016454
71.681875,-0.010598
71.691875,0.039320
71.701875,0.023217
71.765625,0.004538
71.775625,0.019031
71.785625,0.011301
71.795625,0.034167
71.859375,0.029980
71.869375,0.007115
71.879375,0.026760
71.889375,0.049303
71.968750,-0.007055
71.978750,0.044473
71.988750,0.040930
71.998750,0.003250
72.062500,0.046083
72.072500,0.043506
72.082500,0.011301
72.092500,0.018386
72.171875,0.033523
72.181875,0.032557
72.191875,0.040286
72.201875,0.042218
72.265625,-0.012530
72.275625,0.029336
72.285625,0.014200
72.295625,0.002606
72.359375,0.015166
72.369375,0.035455
72.379375,-0.008988
72.389375,0.038032
72.468750,0.006149
72.478750,0.022573
72.488750,-0.004157
72.498750,-0.012208
72.562500,0.042540
72.572500,-0.010920
72.582500,-0.014141
72.592500,0.037065
72.671875,0.033845
72.681875,0.015488
72.691875,0.015810
72.701875,-0.009310
72.765625,0.003250
72.775625,0.026438
72.785625,0.012268
72.795625,0.002284
72.859375,-0.007055
72.869375,0.016132
72.879375,0.042218
72.889375,0.026760
72.968750,0.042218
72.978750,0.013234
72.988750,0.002928
72.998750,-0.001581
73.062500,0.044795
73.072500,-0.001903
73.082500,0.002284
73.092500,0.013878
73.171875,0.000996
73.181875,0.030624
73.191875,-0.003191
73.201875,0.012590
73.265625,0.040286
73.275625,-0.008022
73.285625,0.022895
73.295625,0.048337
73.375000,-0.010598
73.385000,0.046405
73.395000,0.036099
73.405000,0.019997
73.468750,-0.011564
73.478750,0.033523
73.488750,0.012268
73.498750,0.011301
73.562500,0.032879
73.572500,-0.012530
73.582500,0.032879
73.592500,0.037710
73.671875,-0.010598
73.681875,0.002606
73.691875,0.044473
73.701875,0.014522
73.765625,-0.001259
73.775625,0.038998
73.785625,0.009369
73.795625,-0.012530
73.875000,-0.007700
73.885000,0.013234
73.895000,0.041896
73.905000,-0.011242
73.968750,0.021929
73.978750,0.049947
73.988750,2.963812E-5
73.998750,0.023539
74.062500,0.014522
74.072500,0.010657
74.082500,0.023861
74.092500,0.044151
74.171875,-0.000292
74.181875,-0.003191
74.191875,-0.017683
74.201875,-0.005445
74.265625,0.004216
74.275625,0.003572
74.285625,0.000996
74.295625,0.030302
74.359375,0.002284
74.369375,0.038354
74.379375,-0.015429
74.389375,0.013878
74.468750,-0.020260
74.478750,-0.001903
74.488750,0.004860
74.498750,0.006149
74.562500,-0.012208
74.572500,0.030624
74.582500,0.038998
74.592500,-0.005123
74.671875,0.036099
74.681875,0.023539
74.691875,-0.005445
74.701875,0.009369
74.765625,0.040608
74.775625,-0.004479
74.785625,0.019353
74.795625,-0.015751
74.875000,-0.012852
74.885000,0.031591
74.895000,0.035133
74.905000,-0.006089
74.968750,0.037710
74.978750,0.000352
74.988750,0.037710
74.998750,0.022895
75.062500,0.037710
75.072500,0.007115
75.082500,-0.000614
75.092500,0.000674
75.171875,0.000996
75.181875,0.009691
75.191875,-0.003513
75.201875,-0.008988
75.265625,0.026760
75.275625,0.010979
75.285625,0.031591
75.295625,0.037065
75.375000,0.035777
75.385000,0.039642
75.395000,0.006471
75.405000,-0.014785
75.468750,0.025794
75.478750,-0.012530
75.488750,0.000674
75.498750,-0.011564
75.562500,0.001640
75.572500,0.005827
75.582500,0.022251
75.592500,0.040286
75.671875,0.003894
75.681875,0.040930
75.691875,0.021607
75.701875,0.002928
75.765625,0.011301
75.775625,0.006793
75.785625,0.045439
75.795625,0.026116
75.859375,0.037065
75.869375,-0.002225
75.879375,0.010657
75.889375,-0.002225
75.968750,0.020319
75.978750,0.001318
75.988750,0.049947
75.998750,0.026760
76.062500,-0.005767
76.072500,-0.005767
76.082500,-0.005123
76.092500,0.021929
76.171875,0.009369
76.181875,-0.015429
76.191875,-0.003191
76.201875,0.039320
76.265625,0.007437
76.275625,-0.013174
76.285625,-0.001259
76.295625,-0.010920
76.375000,0.023861
76.385000,0.002606
76.395000,0.004538
76.405000,0.006471
76.468750,-0.008988
76.478750,-0.002225
76.488750,0.007437
76.498750,-0.015429
76.562500,-0.012852
76.572500,0.005182
76.582500,0.002606
76.592500,0.020641
76.671875,0.035133
76.681875,0.021285
76.691875,-0.017039
76.701875,-0.006089
76.765625,0.025794
76.775625,0.045761
76.785625,0.011301
76.795625,-0.017039
76.859375,0.030302
76.869375,0.020319
76.879375,0.027404
76.889375,0.003572
76.968750,0.044151
76.978750,-0.008022
76.988750,-0.009632
76.998750,0.022895
77.062500,0.035455
77.072500,2.963812E-5
77.082500,0.008403
77.092500,0.022573
77.171875,0.031913
77.181875,-0.013496
77.191875,-0.000292
77.201875,0.022573
77.265625,0.021285
77.275625,0.029336
77.285625,0.013878
77.295625,-0.000614
77.375000,-0.006089
77.385000,-0.018327
77.395000,-0.011242
77.405000,0.010979
77.468750,0.006149
77.478750,0.010657
77.488750,0.027404
77.498750,0.033201
77.562500,0.007437
77.572500,0.008081
77.582500,0.009047
77.592500,-0.000614
77.671875,0.031591
77.681875,-0.017361
77.691875,0.001318
77.701875,-0.023480
77.765625,0.002284
77.775625,0.045117
77.785625,0.029014
77.795625,-0.012852
77.875000,0.044473
77.885000,-0.008666
77.895000,0.016132
77.905000,0.033201
77.968750,0.010013
77.978750,0.013556
77.988750,0.019031
77.998750,0.000352
78.062500,0.007759
78.072500,0.037065
78.082500,-0.013174
78.092500,0.034489
78.171875,0.039642
78.181875,0.014844
78.191875,0.038354
78.201875,0.001962
78.265625,0.038354
78.275625,0.010335
78.285625,-0.004479
78.295625,0.026760
78.359375,-0.001581
78.369375,-0.010276
78.379375,-0.011564
78.389375,0.002928
78.468750,-0.005123
78.478750,0.020319
78.488750,0.015166
78.498750,-0.007055
78.562500,0.033523
78.572500,0.026438
78.582500,0.030624
78.592500,0.012590
78.671875,0.029980
78.681875,0.036743
78.691875,-0.008666
78.701875,0.024183
78.765625,-0.015429
78.775625,0.027404
78.785625,0.035455
78.795625,0.033523
78.859375,0.037387
78.869375,0.036421
78.879375,-0.007055
78.889375,0.025794
78.968750,-0.005767
78.978750,-0.002547
78.988750,0.001962
78.998750,0.040608
79.062500,-0.001903
79.072500,0.009691
79.082500,0.015166
79.092500,0.013234
79.171875,0.024505
79.181875,-0.007378
79.191875,0.039320
79.201875,0.013234
79.265625,0.006793
79.275625,-0.013174
79.285625,0.008403
79.295625,-0.008022
79.359375,0.039320
79.369375,-0.007378
79.379375,0.035455
79.389375,0.042862
79.468750,0.036421
79.478750,0.019353
79.488750,0.036743
79.498750,0.000674
79.562500,0.036421
79.572500,0.027726
79.582500,0.038354
79.592500,-0.001581
79.671875,-0.006733
79.681875,0.010335
79.691875,0.036743
79.701875,0.006793
79.765625,0.002606
79.775625,0.028048
79.785625,-0.011886
79.795625,0.043184
79.859375,0.011945
79.869375,0.011301
79.879375,0.033845
79.889375,0.038032
79.968750,-0.003513
79.978750,-0.007055
79.988750,0.009691
79.998750,0.004860
80.062500,0.024828
80.072500,-0.007700
80.082500,-0.013819
80.092500,0.033201
80.171875,0.038354
80.181875,0.007115
80.191875,0.067982
80.201875,0.038032
80.265625,0.012912
80.275625,0.003572
80.285625,0.029980
80.295625,0.025794
80.359375,0.028048
80.369375,-0.010920
80.379375,-0.011886
80.389375,-0.019293
80.468750,0.002284
80.478750,0.012590
80.488750,-0.008666
80.498750,0.001962
80.562500,0.009691
80.572500,0.011623
80.582500,-0.009310
80.592500,0.042540
80.671875,-0.006089
80.681875,0.005504
80.691875,0.029980
80.701875,-0.011242
80.765625,-0.011564
80.775625,-0.005123
80.785625,0.020963
80.795625,0.040286
80.859375,0.036099
80.869375,0.021929
80.879375,0.026438
80.889375,0.019675
80.968750,0.017098
80.978750,0.033523
80.988750,0.029658
80.998750,0.036743
81.062500,-0.005123
81.072500,0.012268
81.082500,-0.006733
81.092500,-0.015751
81.171875,0.001640
81.181875,0.017420
81.191875,0.022251
81.201875,0.039964
81.265625,0.038676
81.275625,-0.013496
81.285625,0.019031
81.295625,0.030302
81.375000,-0.002547
81.385000,-0.010920
81.395000,-0.000937
81.405000,-0.016073
81.468750,-0.015107
81.478750,0.031269
81.488750,0.013878
81.498750,0.035455
81.562500,0.039320
81.572500,0.027404
81.582500,0.021929
81.592500,0.025472
81.671875,0.036421
81.681875,0.023539
81.691875,0.032557
81.701875,-0.006733
81.765625,-0.009632
81.775625,0.029014
81.785625,-0.004801
81.795625,0.018386
81.875000,0.024828
81.885000,0.040930
81.895000,0.006471
81.905000,0.017742
81.968750,0.023539
81.978750,0.005827
81.988750,0.030624
81.998750,0.040930
82.062500,0.037710
82.072500,-0.009954
82.082500,0.030624
82.092500,0.003572
82.171875,0.027404
82.181875,-0.013496
82.191875,0.039964
82.201875,0.004860
82.265625,0.018386
82.275625,-0.005123
82.285625,-0.001259
82.295625,-0.017361
82.359375,-0.006733
82.369375,-0.016073
82.379375,0.037065
82.389375,0.038032
82.468750,-0.002547
82.478750,0.041252
82.488750,-0.009632
82.498750,-0.005767
82.562500,0.036421
82.572500,-0.010920
82.582500,0.019997
82.592500,0.034167
82.671875,0.000352
82.681875,0.002284
82.691875,0.017420
82.701875,0.023539
82.765625,0.041896
82.775625,-0.012530
82.785625,-0.001903
82.795625,0.010979
82.875000,-0.001903
82.885000,0.034489
82.895000,-0.010920
82.905000,0.034489
82.968750,0.017742
82.978750,0.014844
82.988750,0.043506
82.998750,-0.018971
83.062500,0.028692
83.072500,0.039320
83.082500,0.042218
83.092500,0.032879
83.171875,0.012268
83.181875,-0.007700
83.191875,0.036421
83.201875,-0.005123
83.265625,-0.000937
83.275625,0.047371
83.285625,0.022895
83.295625,0.023539
83.359375,0.043828
83.369375,0.025794
83.379375,0.011623
83.389375,0.023861
83.468750,-0.003513
83.478750,0.002928
83.488750,0.008725
83.498750,0.012912
83.562500,0.033845
83.572500,-0.001581
83.582500,0.021607
83.592500,-0.015751
83.671875,0.001962
83.681875,0.011945
83.691875,-0.008988
83.701875,0.037387
83.765625,0.048015
83.775625,0.014200
83.785625,0.040608
83.795625,0.014844
83.875000,0.015488
83.885000,-0.006089
83.895000,0.037710
83.905000,0.023861
83.968750,-0.003513
83.978750,0.023217
83.988750,-0.002547
83.998750,0.042862
84.062500,0.025150
84.072500,-0.017683
84.082500,0.031913
84.092500,-0.012852
84.171875,0.034167
84.181875,0.037065
84.191875,0.036421
84.201875,-0.007055
84.265625,-0.004157
84.275625,0.018709
84.285625,-0.008988
84.295625,-0.006733
84.375000,-0.010920
84.385000,0.042540
84.395000,-0.005123
84.405000,0.017742
84.468750,-0.012852
84.478750,0.030946
84.488750,-0.012208
84.498750,0.033523
84.562500,0.014200
84.572500,0.001318
84.582500,-0.007378
84.592500,0.004216
84.671875,-0.009632
84.681875,0.015810
84.691875,-0.009632
84.701875,0.043828
84.765625,0.005504
84.775625,-0.006733
84.785625,0.041252
84.795625,-0.014785
84.875000,0.023217
84.885000,0.012268
84.895000,0.039642
84.905000,0.032879
84.968750,0.027726
84.978750,0.000674
84.988750,0.022895
84.998750,-0.001259
85.062500,0.024828
85.072500,0.020319
85.082500,0.004860
85.092500,-0.010598
85.171875,0.049625
85.181875,-0.003191
85.191875,-0.007378
85.201875,-0.005767
85.265625,0.009691
85.275625,0.027404
85.285625,0.039964
85.295625,0.008081
85.375000,0.021607
85.385000,-0.005123
85.395000,0.031591
85.405000,-0.009310
85.468750,0.021929
85.478750,0.013234
85.488750,0.012912
85.498750,-0.016395
85.562500,0.000674
85.572500,-0.013819
85.582500,0.002606
85.592500,0.017420
85.671875,0.011945
85.681875,0.037710
85.691875,0.045761
85.701875,0.022573
85.765625,0.022573
85.775625,0.044473
85.785625,0.005504
85.795625,0.019353
85.859375,0.029014
85.869375,0.010013
85.879375,0.035133
85.889375,0.004538
85.968750,-0.002225
85.978750,0.018064
85.988750,0.032879
85.998750,0.047049
86.062500,-0.002225
86.072500,-0.005445
86.082500,0.007115
86.092500,0.015166
86.171875,0.026116
86.181875,0.013556
86.191875,-0.000614
86.201875,-0.013174
86.265625,0.010013
86.275625,0.002928
86.285625,-0.011242
86.295625,0.021929
86.359375,0.022573
86.369375,-0.009310
86.379375,0.001962
86.389375,0.029336
86.468750,-0.012208
86.478750,0.012590
86.488750,0.026760
86.498750,0.032879
86.562500,-0.009954
86.572500,0.044151
86.582500,0.004216
86.592500,0.017420
86.671875,-0.016395
86.681875,0.029980
86.691875,0.029658
86.701875,-0.005445
86.765625,0.043184
86.775625,0.020319
86.785625,0.015810
86.795625,0.008403
86.859375,0.001962
86.869375,0.010013
86.879375,0.026116
86.889375,0.019997
86.968750,0.017420
86.978750,0.010013
86.988750,0.017420
86.998750,-0.007378
87.062500,0.044473
87.072500,0.004860
87.082500,0.027082
87.092500,0.005827
87.171875,0.012912
87.181875,0.032557
87.191875,-0.004801
87.201875,0.035455
87.265625,0.000352
87.275625,0.002928
87.285625,-0.014785
87.295625,0.042218
87.359375,-0.004479
87.369375,-0.006089
87.379375,-0.010276
87.389375,-0.005767
87.468750,-0.010920
87.478750,-0.006089
87.488750,0.023861
87.498750,0.009691
87.562500,0.028370
87.572500,0.016454
87.582500,0.028370
87.592500,0.034167
87.671875,0.004538
87.681875,0.027726
87.691875,0.015488
87.701875,0.020641
87.765625,0.042862
87.775625,0.013234
87.785625,-0.015107
87.795625,0.022251
87.875000,0.010657
87.885000,0.040608
87.895000,-0.010920
87.905000,-0.012852
87.968750,0.037387
87.978750,2.963812E-5
87.988750,0.043184
87.998750,0.019353
88.062500,0.025794
88.072500,-0.010276
88.082500,0.011301
88.092500,-0.004479
88.171875,-0.002547
88.181875,0.033845
88.191875,0.012590
88.201875,-0.008666
88.265625,-0.008666
88.275625,0.023539
88.285625,0.003572
88.295625,-0.009632
88.375000,0.006149
88.385000,0.001318
88.395000,0.010013
88.405000,-0.016073
88.468750,0.019353
88.478750,-0.008988
88.488750,-0.002869
88.498750,0.001962
88.562500,0.030302
88.572500,0.026760
88.582500,0.032879
88.592500,0.036743
88.671875,-0.005123
88.681875,-0.009632
88.691875,0.024183
88.701875,0.021285
88.765625,0.000996
88.775625,0.040608
88.785625,0.027726
88.795625,0.022573
88.875000,-0.002225
88.885000,0.025150
88.895000,0.028370
88.905000,0.042862
88.968750,0.030624
88.978750,0.001640
88.988750,0.021929
88.998750,0.044473
89.062500,-0.004801
89.072500,-0.013496
89.082500,-0.007055
89.092500,0.002284
89.171875,0.008081
89.181875,-0.009954
89.191875,0.003894
89.201875,-0.003191
89.265625,-0.008344
89.275625,0.004860
89.285625,0.026760
89.295625,2.963812E-5
89.359375,0.007437
89.369375,-0.010920
89.379375,-0.005445
89.389375,0.007115
89.468750,0.015488
89.478750,0.025794
89.488750,0.033201
89.498750,0.000996
89.562500,0.001640
89.572500,-0.000614
89.582500,0.021929
89.592500,0.037065
89.671875,0.006793
89.681875,-0.015107
89.691875,0.037710
89.701875,0.012268
89.765625,0.030302
89.775625,0.046083
89.785625,0.008403
89.795625,0.024505
89.859375,0.035777
89.869375,0.038354
89.879375,0.042540
89.889375,-0.014141
89.968750,0.035777
89.978750,0.032235
89.988750,0.023217
89.998750,0.031269
90.062500,0.006471
90.072500,-0.018649
90.082500,0.043828
90.092500,0.046083
90.171875,-0.017039
90.181875,0.007759
90.191875,0.002284
90.201875,0.019031
90.265625,-0.005767
90.275625,0.043506
90.285625,0.005827
90.295625,-0.009310
90.375000,0.011945
90.385000,0.040608
90.395000,0.022251
90.405000,0.037710
90.468750,0.010979
90.478750,0.000674
90.488750,0.035133
90.498750,0.040286
90.562500,-0.006089
90.572500,0.032235
90.582500,0.023861
90.592500,-0.007378
90.671875,0.037710
90.681875,-0.011886
90.691875,0.025472
90.701875,-0.015429
90.765625,0.025472
90.775625,0.034811
90.785625,-0.002547
90.795625,-0.001581
90.875000,0.026116
90.885000,0.039964
90.895000,0.025150
90.905000,2.963812E-5
90.968750,0.023217
90.978750,0.005827
90.988750,0.042862
90.998750,0.012912
91.062500,-0.005767
91.072500,0.013556
91.082500,0.000352
91.092500,-0.004157
91.171875,0.040608
91.181875,0.038676
91.191875,0.016454
91.201875,0.016776
91.265625,-0.000937
91.275625,0.031269
91.285625,0.041574
91.295625,-0.013496
91.375000,0.036099
91.385000,-0.004157
91.395000,0.001962
91.405000,0.015166
91.468750,-0.016073
91.478750,-0.002869
91.488750,-0.005767
91.498750,-0.006411
91.562500,0.001318
91.572500,0.044795
91.582500,0.002606
91.592500,0.022895
91.671875,0.010657
91.681875,0.021929
91.691875,0.009047
91.701875,-0.003513
91.765625,0.013878
91.775625,0.011945
91.785625,0.036099
91.795625,0.012268
91.859375,0.015810
91.869375,0.022895
91.879375,0.040608
91.889375,0.034811
91.968750,0.023539
91.978750,-0.008988
91.988750,0.018386
91.998750,0.011623
92.062500,-0.004157
92.072500,2.963812E-5
92.082500,0.006793
92.092500,0.019353
92.171875,-0.010276
92.181875,0.028692
92.191875,0.001962
92.201875,-0.012208
92.265625,0.002284
92.275625,-0.013496
92.285625,-0.015751
92.295625,-0.013496
92.359375,-0.013174
92.369375,0.018386
92.379375,-0.002225
92.389375,0.013878
92.468750,0.034811
92.478750,0.025150
92.488750,0.041896
92.498750,0.032235
92.562500,-0.010276
92.572500,0.039964
92.582500,-0.016073
92.592500,0.035455
92.671875,0.023217
92.681875,0.000996
92.691875,0.065406
92.701875,-0.005445
92.765625,0.019353
92.775625,0.032879
92.785625,-0.002869
92.795625,-0.005445
92.859375,0.021285
92.869375,0.040930
92.879375,-0.004157
92.889375,0.021285
92.968750,-0.019937
92.978750,0.001962
92.988750,-0.012208
92.998750,0.013878
93.062500,-0.008988
93.072500,0.012268
93.082500,0.022895
93.092500,0.042218
93.171875,0.029658
93.181875,0.010657
93.191875,0.034167
93.201875,-0.000937
93.265625,0.005827
93.275625,0.000674
93.285625,0.030302
93.295625,-0.000937
93.359375,0.023539
93.369375,0.032557
93.379375,0.015810
93.389375,0.007115
93.468750,0.023539
93.478750,0.001318
93.488750,-0.005767
93.498750,0.031913
93.562500,-0.008666
93.572500,0.029658
93.582500,0.030624
93.592500,-0.014463
93.671875,-0.006733
93.681875,0.035455
93.691875,0.027404
93.701875,0.002606
93.765625,0.014844
93.775625,-0.013496
93.785625,0.036099
93.795625,0.047049
93.875000,0.008725
93.885000,0.009369
93.895000,0.042540
93.905000,0.014200
93.968750,0.024828
93.978750,0.008725
93.988750,0.024505
93.998750,-0.010598
94.062500,-0.009632
94.072500,0.022573
94.082500,0.034489
94.092500,0.035777
94.171875,0.043184
94.181875,0.038998
94.191875,0.006149
94.201875,0.053168
94.265625,0.021607
94.275625,-0.010598
94.285625,0.012590
94.295625,-0.007378
94.359375,0.033201
94.369375,0.035455
94.379375,0.027404
94.389375,0.024505
94.468750,0.021285
94.478750,2.963812E-5
94.488750,0.043184
94.498750,0.030624
94.562500,0.023217
94.572500,0.003894
94.582500,-0.004801
94.592500,-0.004157
94.671875,0.017742
94.681875,0.009691
94.691875,-0.013496
94.701875,0.028692
94.765625,0.023217
94.775625,0.008081
94.785625,0.014522
94.795625,0.011301
94.875000,-0.012208
94.885000,-0.002225
94.895000,2.963812E-5
94.905000,-0.007378
94.968750,0.019353
94.978750,-0.003835
94.988750,2.963812E-5
94.998750,-0.009954
95.062500,0.030624
95.072500,0.032879
95.082500,0.001962
95.092500,-0.007378
95.171875,0.038354
95.181875,0.037387
95.191875,0.041252
95.201875,0.010979
95.265625,0.035133
95.275625,0.021929
95.285625,0.018064
95.295625,0.030624
95.375000,0.038676
95.385000,0.013556
95.395000,0.019031
95.405000,2.963812E-5
95.468750,-0.006089
95.478750,0.017098
95.488750,-0.001259
95.498750,0.006471
95.562500,0.040930
95.572500,0.025472
95.582500,0.018386
95.592500,0.010335
95.671875,0.021929
95.681875,0.027404
95.691875,0.026116
95.701875,0.029980
95.765625,0.017742
95.775625,0.010657
95.785625,0.027726
95.795625,0.020319
95.859375,0.023539
95.869375,0.033523
95.879375,0.012590
95.889375,0.031913
95.968750,0.030946
95.978750,0.021607
95.988750,0.012912
95.998750,0.036421
96.062500,0.012268
96.072500,-0.002547
96.082500,0.000996
96.092500,0.039964
96.171875,0.028370
96.181875,0.005182
96.191875,0.028370
96.201875,0.020641
96.265625,0.038676
96.275625,0.011945
96.285625,-0.006733
96.295625,-0.016395
96.375000,-0.028633
96.385000,-0.006089
96.395000,0.051558
96.405000,0.024183
96.468750,0.028692
96.478750,0.009369
96.488750,-0.005767
96.498750,0.027082
96.562500,0.017742
96.572500,0.034167
96.582500,0.033523
96.592500,2.963812E-5
96.671875,0.025472
96.681875,0.015166
96.691875,0.009691
96.701875,0.018709
96.765625,-0.007055
96.775625,0.030624
96.785625,0.013556
96.795625,0.025472
96.875000,0.002928
96.885000,0.048981
96.895000,0.044473
96.905000,-0.012530
96.968750,0.014522
96.978750,0.019997
96.988750,0.012590
96.998750,0.002284
97.062500,0.040930
97.072500,0.029658
97.082500,0.037065
97.092500,0.011945
97.171875,-0.010920
97.181875,0.034811
97.191875,0.015166
97.201875,0.031591
97.265625,-0.012852
97.275625,0.043506
97.285625,0.034489
97.295625,-0.011886
97.375000,0.045439
97.385000,-0.005123
97.395000,0.025150
97.405000,0.017420
97.468750,0.031913
97.478750,-0.009310
97.488750,0.030302
97.498750,-0.003191
97.562500,-0.010920
97.572500,0.032235
97.582500,0.039320
97.592500,0.042218
97.671875,0.035133
97.681875,-0.008344
97.691875,-0.001581
97.701875,0.034489
97.765625,0.007115
97.775625,-0.005767
97.785625,0.038032
97.795625,-0.005123
97.875000,-0.007700
97.885000,-0.015107
97.895000,0.013556
97.905000,-0.012852
97.968750,-0.005123
97.978750,0.005182
97.988750,-0.001903
97.998750,0.004216
98.062500,0.005504
98.072500,0.006149
98.082500,-0.008022
98.092500,0.000352
98.171875,0.037065
98.181875,-0.002869
98.191875,0.003250
98.201875,0.043184
98.265625,0.029658
98.275625,0.023217
98.285625,0.001640
98.295625,0.001640
98.375000,0.049947
98.385000,0.007115
98.395000,0.016132
98.405000,0.021607
98.468750,0.018709
98.478750,0.010013
98.488750,0.013878
98.498750,0.035777
98.562500,0.038032
98.572500,0.001962
98.582500,0.006149
98.592500,0.019031
98.671875,0.018386
98.681875,-0.008022
98.691875,0.013556
98.701875,-0.001581
98.765625,0.009047
98.775625,-0.002547
98.785625,0.037710
98.795625,0.007115
98.859375,0.033845
98.869375,-0.001581
98.879375,-0.011886
98.889375,-0.007700
98.968750,0.002928
98.978750,0.025472
98.988750,0.002606
98.998750,0.029014
99.062500,0.016454
99.072500,-0.008666
99.082500,0.018064
99.092500,0.040608
99.171875,0.043184
99.181875,-0.005767
99.191875,0.017420
99.201875,0.026760
99.265625,0.020963
99.275625,-0.008988
99.285625,-0.004801
99.295625,0.021285
99.359375,0.031913
99.369375,-0.011886
99.379375,0.014522
99.389375,0.030302
99.468750,0.009691
99.478750,-0.003191
99.488750,-0.011242
99.498750,0.003250
99.562500,-0.008344
99.572500,0.042862
99.582500,0.014844
99.592500,0.022251
99.671875,0.015166
99.681875,-0.008988
99.691875,-0.010276
99.701875,0.024183
99.765625,0.039320
99.775625,0.025794
99.785625,0.026116
99.795625,-0.002547
99.875000,-0.010598
99.885000,-0.005123
99.895000,0.025794
99.905000,0.012268
99.968750,0.013556
99.978750,0.043828
99.988750,0.033845
99.998750,0.038354
100.062500,-0.019615
100.072500,-0.008022
100.082500,0.026438
100.092500,-0.005123
100.171875,0.021929
100.181875,0.002928
100.191875,0.000352
100.201875,0.039964
100.265625,0.033201
100.275625,0.029658
100.285625,0.044151
100.295625,0.039642
100.359375,2.963812E-5
100.369375,-0.004479
100.379375,0.025150
100.389375,0.019031
100.468750,-0.006733
100.478750,0.025472
100.488750,0.019675
100.498750,0.028692
100.562500,0.024828
100.572500,0.006149
100.582500,0.018386
100.592500,0.034489
100.671875,0.021929
100.681875,-0.004801
100.691875,-0.015429
100.701875,-0.000292
100.765625,0.014844
100.775625,-0.008022
100.785625,-0.002547
100.795625,0.036743
100.875000,0.038676
100.885000,-0.013819
100.895000,0.009691
100.905000,0.021285
100.968750,0.000996
100.978750,0.043184
100.988750,0.028370
100.998750,0.038998
101.062500,0.030302
101.072500,0.025150
101.082500,0.032235
101.092500,0.005182
101.171875,0.043184
101.181875,-0.000937
101.191875,-0.000292
101.201875,-0.014463
101.265625,0.030624
101.275625,0.010013
101.285625,0.024183
101.295625,0.037710
101.359375,-0.001581
101.369375,0.028048
101.379375,0.008081
101.389375,0.025794
101.468750,0.035455
101.478750,0.037710
101.488750,0.026116
101.498750,-0.000937
101.562500,0.024828
101.572500,0.023539
101.582500,0.003894
101.592500,0.015810
101.671875,-0.006733
101.681875,0.004538
101.691875,0.017742
101.701875,0.001962
101.765625,0.008403
101.775625,-0.011886
101.785625,0.019997
101.795625,0.028692
101.875000,0.038032
101.885000,-0.009632
101.895000,0.012912
101.905000,0.019997
101.968750,0.012268
101.978750,0.033523
101.988750,-0.005123
101.998750,-0.008988
102.187500,0.038998
102.197500,0.018064
102.207500,-0.006089
102.217500,0.036099
102.328125,0.005504
102.338125,0.037387
102.348125,0.006793
102.358125,0.019353
102.406250,-0.008022
102.416250,0.027726
102.426250,0.013234
102.436250,0.001318
102.484375,0.002928
102.494375,0.035777
102.504375,0.019675
102.514375,-0.011564
102.578125,-0.015751
102.588125,0.006471
102.598125,0.013234
102.608125,-0.008344
102.671875,0.009369
102.681875,0.022251
102.691875,0.033201
102.701875,0.004216
102.765625,0.029658
102.775625,0.030624
102.785625,0.027404
102.795625,0.039642
102.859375,0.023217
102.869375,0.041574
102.879375,0.022573
102.889375,0.034811
102.968750,0.045117
102.978750,0.024505
102.988750,-0.003835
102.998750,0.028692
103.062500,0.039642
103.072500,0.027726
103.082500,0.001962
103.092500,0.021285
103.171875,0.031269
103.181875,0.002606
103.191875,0.021285
103.201875,0.027726
103.265625,0.040930
103.275625,-0.008666
103.285625,0.016776
103.295625,0.021285
103.375000,-0.010920
103.385000,0.035777
103.395000,0.014522
103.405000,0.074745
103.468750,0.070237
103.478750,-0.005767
103.488750,0.052846
103.498750,0.054778
103.562500,-0.007055
103.572500,0.095357
103.582500,0.013878
103.592500,0.052524
103.671875,0.028048
103.681875,0.042218
103.691875,-0.018005
103.701875,0.057355
103.765625,0.080864
103.775625,0.058643
103.785625,0.017420
103.795625,-0.006411
103.859375,0.059931
103.869375,-0.000292
103.879375,0.039642
103.889375,0.011301
103.968750,-0.007378
103.978750,0.070559
103.988750,0.046727
103.998750,0.022573
104.062500,-0.012530
104.072500,-0.015751
104.082500,0.075067
104.092500,-0.005123
104.171875,0.054778
104.181875,0.027082
104.191875,-0.000937
104.201875,0.002606
104.359375,0.048337
104.369375,0.011945
104.379375,0.018064
104.389375,0.020319
104.437500,0.013556
104.447500,-0.005445
104.457500,0.040286
104.467500,0.029658
104.515625,0.032879
104.525625,-0.009632
104.535625,-0.014785
104.545625,0.035133
104.593750,-0.000292
104.603750,0.014844
104.613750,0.017098
104.623750,0.011301
104.671875,0.014844
104.681875,0.019997
104.691875,-0.008666
104.701875,0.023539
104.765625,0.019353
104.775625,0.035133
104.785625,0.045761
104.795625,0.013234
104.875000,0.027404
104.885000,-0.005767
104.895000,0.038676
104.905000,-0.015429
104.968750,0.017420
104.978750,-0.007700
104.988750,0.023217
104.998750,0.031913
105.062500,0.044795
105.072500,0.052524
105.082500,0.002284
105.092500,-0.001259
105.171875,0.026116
105.181875,0.047049
105.191875,-0.002225
105.201875,0.087949
105.265625,0.054778
105.275625,-0.018327
105.285625,0.066694
105.295625,-0.034430
105.359375,-0.020904
105.369375,0.014522
105.379375,0.041574
105.389375,0.035455
105.468750,0.060253
105.478750,0.040286
105.488750,0.091170
105.498750,0.045761
105.562500,0.008081
105.572500,0.039642
105.582500,0.009691
105.592500,0.020641
105.671875,0.046083
105.681875,0.006471
105.691875,0.065084
105.701875,0.049947
105.765625,-0.025734
105.775625,0.105662
105.785625,-0.036684
105.795625,0.024828
105.875000,0.034489
105.885000,0.032879
105.895000,0.014844
105.905000,0.028048
105.968750,0.075389
105.978750,0.033523
105.988750,0.024183
105.998750,-0.006411
106.062500,0.076033
106.072500,-0.040549
106.082500,0.030302
106.092500,-0.002547
106.171875,0.023861
106.181875,0.011301
106.191875,0.009691
106.201875,0.026438
106.265625,0.048981
106.275625,-0.012852
106.285625,0.082797
106.295625,0.009369
106.375000,-0.041515
106.385000,0.046083
106.395000,0.051880
106.405000,0.051236
106.468750,0.038032
106.478750,0.031269
106.488750,0.038676
106.498750,0.010979
106.562500,0.006793
106.572500,-0.020260
106.582500,0.017098
106.592500,-0.000292
106.671875,0.018386
106.681875,0.041252
106.691875,-0.004479
106.701875,0.023217
106.765625,0.047049
106.775625,-0.009310
106.785625,-0.008022
106.795625,-0.002869
106.859375,0.042218
106.869375,0.031269
106.879375,-0.003835
106.889375,0.022895
106.968750,0.031269
106.978750,0.019675
106.988750,-0.001259
106.998750,-0.019293
107.062500,-0.001259
107.072500,0.001640
107.082500,-0.003191
107.092500,0.000674
107.171875,-0.008666
107.181875,-0.009632
107.191875,0.011945
107.201875,-0.005123
107.265625,0.042218
107.275625,0.008725
107.285625,0.042540
107.295625,0.017420
107.359375,0.001318
107.369375,0.000674
107.379375,0.017420
107.389375,0.000996
107.468750,0.019353
107.478750,0.031269
107.488750,0.029014
107.498750,0.017420
107.562500,0.016454
107.572500,0.043184
107.582500,0.040286
107.592500,0.038998
107.671875,0.018709
107.681875,-0.002225
107.691875,-0.012852
107.701875,-0.007378
107.765625,-0.004479
107.775625,0.030624
107.785625,0.032235
107.795625,-0.006733
107.859375,-0.013819
107.869375,-0.004479
107.879375,0.044795
107.889375,0.043184
107.968750,0.014522
107.978750,-0.000614
107.988750,0.024828
107.998750,0.002284
108.062500,0.033201
108.072500,0.023217
108.082500,-0.012530
108.092500,0.020319
108.171875,0.017098
108.181875,0.010335
108.191875,0.012912
108.201875,-0.013496
108.265625,0.033201
108.275625,0.013556
108.285625,0.031913
108.295625,0.008081
108.375000,0.030302
108.385000,0.026760
108.395000,0.035777
108.405000,0.022573
108.468750,0.026760
108.478750,0.023539
108.488750,-0.002869
108.498750,0.026438
108.562500,0.034811
108.572500,0.025472
108.582500,0.011301
108.592500,0.004860
108.671875,0.032235
108.681875,0.033845
108.691875,-0.005767
108.701875,0.031913
108.765625,0.029980
108.775625,0.013878
108.785625,0.030624
108.795625,0.036421
108.875000,0.034811
108.885000,0.031591
108.895000,0.005827
108.905000,0.040930
108.968750,0.041574
108.978750,0.005827
108.988750,0.012590
108.998750,0.010335
109.062500,0.007759
109.072500,0.031269
109.082500,0.022573
109.092500,0.024828
109.171875,0.034167
109.181875,0.018064
109.191875,0.015810
109.201875,0.038998
109.265625,0.013234
109.275625,0.025794
109.285625,-0.000292
109.295625,-0.014141
109.359375,0.029658
109.369375,-0.004479
109.379375,0.024505
109.389375,0.032879
109.468750,0.048015
109.478750,-0.011886
109.488750,-0.008344
109.498750,0.038032
109.562500,0.012590
109.572500,0.021285
109.582500,0.039320
109.592500,-0.001903
109.671875,0.021607
109.681875,-0.029921
109.691875,0.003250
109.701875,-0.003191
109.765625,0.001318
109.775625,0.008081
109.785625,0.016132
109.795625,0.048337
109.875000,0.001640
109.885000,0.026438
109.895000,0.026760
109.905000,0.022251
109.968750,0.019997
109.978750,-0.004479
109.988750,0.036099
109.998750,-0.006411
110.062500,-0.008666
110.072500,0.017420
110.082500,0.024828
110.092500,-0.011886
110.171875,0.018386
110.181875,0.029014
110.191875,-0.006411
110.201875,0.001962
110.265625,0.018709
110.275625,0.017420
110.285625,0.001962
110.295625,0.028692
110.359375,-0.006733
110.369375,0.013556
110.379375,0.038676
110.389375,0.016132
110.468750,-0.002225
110.478750,-0.012852
110.488750,-0.005767
110.498750,-0.021226
110.562500,0.026438
110.572500,-0.012852
110.582500,0.003572
110.592500,0.034811
110.671875,0.014200
110.681875,2.963812E-5
110.691875,0.038032
110.701875,-0.011564
110.765625,0.032235
110.775625,0.030946
110.785625,0.034167
110.795625,0.030302
110.859375,0.010335
110.869375,-0.003835
110.879375,-0.009954
110.889375,0.035133
110.968750,0.039320
110.978750,0.011301
110.988750,-0.001259
110.998750,0.019997
111.062500,-0.001581
111.072500,0.020963
111.082500,-0.008344
111.092500,-0.001581
111.171875,0.010979
111.181875,0.030946
111.191875,-0.011242
111.201875,0.020641
111.265625,0.036099
111.275625,0.050269
111.285625,-0.014463
111.295625,0.038998
111.375000,0.017420
111.385000,0.020319
111.395000,0.036421
111.405000,0.032235
111.468750,-0.014463
111.478750,0.029336
111.488750,0.021285
111.498750,0.041896
111.562500,-0.007055
111.572500,0.019031
111.582500,0.016776
111.592500,0.041896
111.671875,-0.017683
111.681875,0.005182
111.691875,-0.005767
111.701875,-0.002869
111.765625,0.022573
111.775625,0.044473
111.785625,0.028692
111.795625,0.019353
111.859375,-0.011564
111.869375,0.026760
111.879375,0.040608
111.889375,0.034811
111.968750,0.037710
111.978750,0.003250
111.988750,0.000674
111.998750,0.002606
112.062500,0.039964
112.072500,-0.009310
112.082500,-0.015751
112.092500,-0.002225
112.171875,0.014522
112.181875,0.021929
112.191875,-0.006411
112.201875,0.048015
112.265625,-0.005123
112.275625,-0.007700
112.285625,0.038354
112.295625,0.019031
112.375000,-0.003513
112.385000,0.026116
112.395000,-0.015429
112.405000,0.029336
112.468750,0.035133
112.478750,0.019353
112.488750,-0.007378
112.498750,-0.014141
112.562500,0.006471
112.572500,-0.001581
112.582500,0.003894
112.592500,0.007115
112.671875,0.026438
112.681875,-0.004479
112.691875,0.011945
112.701875,0.025150
112.765625,0.049625
112.775625,0.028048
112.785625,0.038032
112.795625,-0.003191
112.875000,0.038354
112.885000,0.005182
112.895000,-0.004479
112.905000,0.025150
112.968750,0.029014
112.978750,0.034489
112.988750,-0.012208
112.998750,0.001640
113.062500,0.025150
113.072500,0.004216
113.082500,0.025150
113.092500,-0.011564
113.171875,0.013556
113.181875,0.034167
113.191875,0.042862
113.201875,0.015166
113.265625,0.020641
113.275625,0.036421
113.285625,0.038032
113.295625,0.039642
113.359375,0.004860
113.369375,0.043506
113.379375,-0.002547
113.389375,0.036421
113.468750,0.028692
113.478750,0.008403
113.488750,0.023539
113.498750,0.012268
113.562500,0.042218
113.572500,0.034167
113.582500,0.037065
113.592500,0.013878
113.671875,0.018386
113.681875,0.038032
113.691875,0.032557
113.701875,0.040286
113.765625,-0.012530
113.775625,0.027726
113.785625,-0.002225
113.795625,0.032235
113.859375,0.011945
113.869375,0.001962
113.879375,0.009369
113.889375,0.048015
113.968750,0.030302
113.978750,-0.033464
113.988750,0.037065
113.998750,0.033523
114.062500,-0.013496
114.072500,0.049947
114.082500,-0.005123
114.092500,0.006149
114.171875,0.019353
114.181875,0.030624
114.191875,-0.028955
114.201875,0.039320
114.265625,0.009691
114.275625,0.020319
114.285625,0.050269
114.295625,-0.019615
114.375000,0.001640
114.385000,0.039320
114.395000,0.004216
114.405000,-0.021548
114.468750,-0.035718
114.478750,0.065084
114.488750,0.041252
114.498750,-0.001259
114.562500,-0.003513
114.572500,0.093424
114.582500,0.001962
114.592500,-0.003191
114.671875,-0.008988
114.681875,-0.021548
114.691875,0.101475
114.701875,0.038676
114.765625,0.003572
114.775625,-0.035396
114.785625,0.108883
114.795625,0.015166
114.875000,-0.005767
114.885000,0.019353
114.895000,-0.000614
114.905000,-0.041837
114.968750,0.022895
114.978750,0.027404
114.988750,0.077966
114.998750,-0.034430
115.062500,0.083119
115.072500,-0.024124
115.082500,0.032879
115.092500,0.000996
115.171875,-0.037972
115.181875,-0.002547
115.191875,-0.009632
115.201875,0.029658
115.265625,-0.006089
115.275625,0.093102
115.285625,-0.008344
115.295625,-0.010920
115.375000,-0.031531
115.385000,0.029014
115.395000,0.014844
115.405000,-0.028311
115.468750,0.023539
115.478750,0.067338
115.488750,0.004538
115.498750,0.027726
115.562500,0.044795
115.572500,0.018709
115.582500,0.066050
115.592500,-0.033464
115.671875,0.018064
115.681875,-0.009632
115.691875,0.001318
115.701875,0.016132
115.765625,0.033523
115.775625,0.016454
115.785625,-0.009954
115.795625,0.021285
115.859375,0.012268
115.869375,0.023861
115.879375,0.031591
115.889375,0.011301
115.968750,-0.000292
115.978750,0.012912
115.988750,0.043828
115.998750,-0.007378
116.062500,0.024828
116.072500,0.004860
116.082500,-0.005123
116.092500,0.004538
116.171875,-0.003191
116.181875,0.028370
116.191875,0.029014
116.201875,0.040930
116.265625,0.026116
116.275625,-0.012852
116.285625,-0.005767
116.295625,-0.001903
116.375000,0.038998
116.385000,0.017420
116.395000,0.048659
116.405000,0.018064
116.468750,-0.004479
116.478750,0.010657
116.488750,-0.002547
116.498750,0.027726
116.562500,0.009047
116.572500,0.011945
116.582500,0.023217
116.592500,-0.006089
116.671875,0.000352
116.681875,0.034811
116.691875,0.035133
116.701875,0.033523
116.765625,-0.004801
116.775625,0.043184
116.785625,0.012590
116.795625,-0.010920
116.859375,0.035777
116.869375,0.040930
116.879375,-0.014785
116.889375,0.019997
116.968750,0.018386
116.978750,-0.010920
116.988750,0.003250
116.998750,-0.000937
117.062500,0.018064
117.072500,0.041574
117.082500,0.024183
117.092500,-0.008988
117.171875,0.026760
117.181875,0.025150
117.191875,0.021285
117.201875,0.047371
117.265625,0.024183
117.275625,0.014522
117.285625,0.005504
117.295625,0.001640
117.375000,-0.003191
117.385000,0.018709
117.395000,0.007759
117.405000,0.035455
117.468750,0.029014
117.478750,0.014200
117.488750,-0.008022
117.498750,0.016454
117.562500,0.039320
117.572500,0.032879
117.582500,0.016132
117.592500,0.028370
117.671875,0.009691
117.681875,0.019031
117.691875,0.034167
117.701875,0.039320
117.765625,0.012912
117.775625,-0.013496
117.785625,0.005504
117.795625,0.037065
117.875000,0.026116
117.885000,0.015166
117.895000,0.013234
117.905000,0.011945
117.968750,-0.004801
117.978750,0.023539
117.988750,0.037387
117.998750,0.029336
118.062500,0.013234
118.072500,-0.002547
118.082500,0.025150
118.092500,0.013878
118.171875,0.008725
118.181875,0.042218
118.191875,0.032235
118.201875,0.015166
118.265625,0.027404
118.275625,-0.004157
118.285625,0.041896
118.295625,-0.006733
118.375000,-0.014463
118.385000,0.005827
118.395000,-0.007700
118.405000,-0.005123
118.468750,0.001962
118.478750,0.032879
118.488750,0.013234
118.498750,0.019675
118.562500,0.009369
118.572500,0.004538
118.582500,0.029014
118.592500,0.011623
118.671875,0.019675
118.681875,0.016776
118.691875,0.003572
118.701875,0.007759
118.765625,0.013878
118.775625,0.027726
118.785625,0.038354
118.795625,0.045117
118.875000,0.008403
118.885000,0.023861
118.895000,0.001962
118.905000,0.023539
118.968750,-0.013174
118.978750,0.041252
118.988750,-0.008988
118.998750,0.019997
119.062500,0.008081
119.072500,0.035777
119.082500,0.003250
119.092500,0.026116
119.171875,0.018709
119.181875,-0.004157
119.191875,0.004216
119.201875,0.012912
119.265625,0.002284
119.275625,0.031913
119.285625,0.014200
119.295625,0.006793
119.375000,0.005827
119.385000,0.027726
119.395000,-0.001903
119.405000,0.037387
119.468750,-0.012530
119.478750,0.003894
119.488750,0.032235
119.498750,-0.009954
119.562500,0.029980
119.572500,0.023217
119.582500,0.035777
119.592500,0.036099
119.740000,0.018709
119.750000,-0.007378
119.760000,0.022895
119.770000,-0.008022
119.890625,0.007115
119.900625,0.008081
119.910625,-0.002869
119.920625,0.036099
119.968750,0.010657
119.978750,0.020963
119.988750,0.008081
119.998750,-0.002547
120.062500,0.002284
120.072500,0.022251
120.082500,0.031269
120.092500,0.043828
120.171875,-0.006411
120.181875,-0.013496
120.191875,-0.014463
120.201875,0.047371
120.265625,0.020319
120.275625,-0.013819
120.285625,0.034489
120.295625,-0.011886
120.359375,0.016454
120.369375,0.017098
120.379375,0.010979
120.389375,0.022251
120.468750,0.035133
120.478750,0.038032
120.488750,0.016132
120.498750,0.010335
120.562500,0.031591
120.572500,0.026438
120.582500,0.027082
120.592500,0.035133
120.671875,0.035133
120.681875,0.039964
120.691875,-0.012852
120.701875,-0.011242
120.765625,0.033845
120.775625,0.029014
120.785625,0.016454
120.795625,0.030302
120.875000,0.019353
120.885000,-0.002225
120.895000,0.031913
120.905000,0.035133
120.968750,-0.009632
120.978750,0.017098
120.988750,0.010657
120.998750,0.004216
121.062500,0.034811
121.072500,0.010013
121.082500,0.038354
121.092500,0.036099
121.171875,0.017098
121.181875,0.045761
121.191875,-0.004479
121.201875,0.032879
121.265625,0.063796
121.275625,-0.018649
121.285625,-0.014463
121.295625,0.011301
121.359375,0.000674
121.369375,0.036421
121.379375,0.011623
121.389375,-0.004157
121.468750,-0.000292
121.478750,0.049947
121.488750,0.033523
121.498750,0.015810
121.562500,0.032235
121.572500,-0.001903
121.582500,0.042862
121.592500,0.004216
121.671875,0.019997
121.681875,0.052846
121.691875,0.004860
121.701875,-0.015429
121.765625,-0.004479
121.775625,0.016132
121.785625,0.025472
121.795625,0.024505
121.875000,0.021285
121.885000,-0.006089
121.895000,0.037387
121.905000,0.041252
121.968750,0.038032
121.978750,0.013234
121.988750,0.011301
121.998750,0.032235
122.062500,0.026438
122.072500,-0.011564
122.082500,0.048981
122.092500,0.019353
122.171875,0.042862
122.181875,0.039642
122.191875,-0.009954
122.201875,0.005827
122.265625,0.020641
122.275625,0.013234
122.285625,-0.011886
122.295625,0.050914
122.375000,0.019353
122.385000,0.023539
122.395000,0.032235
122.405000,0.006149
122.468750,-0.006411
122.478750,0.009691
122.488750,0.039642
122.498750,0.037710
122.562500,-0.012852
122.572500,0.016454
122.582500,0.044151
122.592500,0.003894
122.671875,0.045439
122.681875,0.024828
122.691875,0.021285
122.701875,-0.003513
122.765625,0.037710
122.775625,0.044795
122.785625,-0.012208
122.795625,2.963812E-5
122.859375,0.039320
122.869375,0.035777
122.879375,0.037387
122.889375,0.033523
122.968750,0.008081
122.978750,0.019353
122.988750,0.023861
122.998750,0.009691
123.062500,0.011301
123.072500,0.000674
123.082500,0.007115
123.092500,0.023861
123.171875,0.029658
123.181875,0.011301
123.191875,0.008403
123.201875,0.044151
123.265625,-0.010276
123.275625,0.033201
123.285625,0.027082
123.295625,0.028692
123.359375,0.048337
123.369375,-0.004157
123.379375,0.008081
123.389375,0.043184
123.468750,0.029980
123.478750,0.025794
123.488750,-0.004801
123.498750,0.011301
123.562500,0.001962
123.572500,0.036743
123.582500,-0.011242
123.592500,-0.015751
123.671875,0.038032
123.681875,0.010013
123.691875,0.029980
123.701875,0.040930
123.765625,0.015166
123.775625,0.027726
123.785625,-0.010598
123.795625,0.033845
123.875000,0.010979
123.885000,0.009369
123.895000,-0.003191
123.905000,0.021929
123.968750,0.026438
123.978750,0.043506
123.988750,0.000996
123.998750,0.024183
124.062500,0.006471
124.072500,0.038354
124.082500,0.039320
124.092500,0.003894
124.171875,-0.014463
124.181875,0.006149
124.191875,0.012912
124.201875,0.026438
124.265625,0.029980
124.275625,0.014844
124.285625,0.038032
124.295625,0.008403
124.359375,0.038032
124.369375,0.043506
124.379375,0.016132
124.389375,0.020641
124.468750,0.032235
124.478750,0.015810
124.488750,0.024505
124.498750,0.025794
124.562500,-0.001259
124.572500,-0.003835
124.582500,0.028692
124.592500,0.023861
124.671875,0.025150
124.681875,-0.012208
124.691875,-0.010920
124.701875,0.026760
124.765625,0.032235
124.775625,0.018386
124.785625,-0.005445
124.795625,0.040608
124.859375,0.038032
124.869375,0.006149
124.879375,0.035455
124.889375,-0.001903
124.968750,0.027082
124.978750,-0.005445
124.988750,0.024505
124.998750,0.015810
125.062500,0.021285
125.072500,0.005827
125.082500,0.004860
125.092500,-0.004479
125.250000,0.012590
125.260000,0.030302
125.270000,0.010013
125.280000,0.038998
125.396250,0.019675
125.406250,0.001962
125.416250,0.021607
125.426250,-0.034752
125.703125,0.000674
125.713125,-0.004157
125.723125,-0.006733
125.733125,-0.011886
125.812500,0.028048
125.822500,0.004538
125.832500,-0.008666
125.842500,0.018709
126.250000,0.033523
126.260000,-0.004801
126.270000,0.041896
126.280000,0.029014
126.343750,0.011623
126.353750,0.015810
126.363750,0.029980
126.373750,0.017098
126.453125,0.043828
126.463125,0.028692
126.473125,0.035777
126.483125,0.029658
126.593750,0.043828
126.603750,-0.010598
126.613750,0.029658
126.623750,-0.000614
126.734375,-0.010598
126.744375,-0.002869
126.754375,0.001962
126.764375,0.006793
126.937500,-0.007055
126.947500,-0.019937
126.957500,-0.007700
126.967500,-0.004801
127.109375,-0.005445
127.119375,0.015810
127.129375,0.015810
127.139375,0.007759
127.218750,0.034811
127.228750,0.020963
127.238750,0.031269
127.248750,0.018709
127.312500,0.032557
127.322500,-0.012530
127.332500,0.001640
127.342500,0.001962
127.453125,0.017420
127.463125,-0.004801
127.473125,-0.009632
127.483125,0.043184
127.593750,0.020319
127.603750,0.008081
127.613750,0.010657
127.623750,0.032235
127.687500,0.002606
127.697500,-0.005767
127.707500,-0.020582
127.717500,0.039964
127.781250,0.030302
127.791250,0.016454
127.801250,0.027082
127.811250,0.007115
127.859375,0.026116
127.869375,0.032235
127.879375,0.030946
127.889375,0.020963
127.968750,0.036421
127.978750,0.029336
127.988750,0.035777
127.998750,0.027404
128.078125,-0.004801
128.088125,0.009047
128.098125,0.007115
128.108125,-0.008666
128.177500,0.012590
128.187500,0.026116
128.197500,0.033523
128.207500,0.005827
128.640625,0.024183
128.650625,0.036421
128.660625,0.039320
128.670625,0.036421
128.734375,0.027726
128.744375,-0.004479
128.754375,0.011945
128.764375,-0.001581
128.812500,-0.002225
128.822500,-0.012530
128.832500,0.000352
128.842500,0.000996
128.984375,-0.007700
128.994375,0.041896
129.004375,0.032235
129.014375,0.003894
129.078125,0.009047
129.088125,0.017742
129.098125,0.005504
129.108125,-0.013496
129.171875,0.027404
129.181875,0.038998
129.191875,0.001640
129.201875,0.009369
129.265625,0.015810
129.275625,0.019675
129.285625,0.014200
129.295625,0.001640
129.328125,-0.000614
129.338125,0.016132
129.348125,0.025150
129.358125,0.001962
129.406250,0.016454
129.416250,-0.003513
129.426250,0.017742
129.436250,0.010013
129.484375,0.037387
129.494375,0.031591
129.504375,-0.012208
129.514375,0.040930
129.578125,-0.007055
129.588125,0.005827
129.598125,0.009691
129.608125,0.016454
129.671875,-0.012852
129.681875,0.035133
129.691875,0.030302
129.701875,0.006793
129.765625,0.020963
129.775625,0.040286
129.785625,0.011623
129.795625,0.024505
129.859375,-0.009632
129.869375,0.028692
129.879375,0.027082
129.889375,0.016454
129.968750,0.032235
129.978750,0.013234
129.988750,0.001962
129.998750,0.031591
130.062500,-0.015429
130.072500,-0.010276
130.082500,0.027726
130.092500,0.033845
130.171875,0.017420
130.181875,0.005182
130.191875,-0.013174
130.201875,0.018386
130.265625,0.038998
130.275625,-0.002869
130.285625,0.030302
130.295625,0.026116
130.359375,-0.000614
130.369375,-0.019293
130.379375,0.002284
130.389375,-0.010920
130.468750,0.024183
130.478750,-0.009954
130.488750,0.005504
130.498750,0.037065
130.562500,0.002284
130.572500,0.022573
130.582500,-0.000614
130.592500,-0.006411
130.671875,0.026438
130.681875,0.003250
130.691875,-0.008988
130.701875,0.017742
130.765625,0.006149
130.775625,0.042540
130.785625,-0.000614
130.795625,0.033845
130.875000,0.043506
130.885000,0.001640
130.895000,0.048981
130.905000,0.028692
130.968750,0.029014
130.978750,0.027082
130.988750,-0.003191
130.998750,-0.003191
131.062500,0.041896
131.072500,0.020963
131.082500,2.963812E-5
131.092500,-0.010920
131.171875,0.011945
131.181875,-0.000937
131.191875,0.001318
131.201875,0.029980
131.265625,0.024505
131.275625,-0.001903
131.285625,0.029336
131.295625,-0.002547
131.359375,0.026438
131.369375,0.023539
131.379375,-0.007700
131.389375,-0.000614
131.468750,-0.013496
131.478750,0.038676
131.488750,-0.000614
131.498750,0.006471
131.562500,0.024828
131.572500,0.013556
131.582500,0.034167
131.592500,0.036743
131.671875,0.040286
131.681875,0.031913
131.691875,0.009691
131.701875,0.015166
131.765625,0.000996
131.775625,0.038032
131.785625,0.026116
131.795625,-0.016395
131.875000,-0.000937
131.885000,0.010335
131.895000,0.010335
131.905000,-0.003191
131.968750,-0.004479
131.978750,-0.001581
131.988750,0.037065
131.998750,-0.002547
132.062500,-0.012530
132.072500,0.017420
132.082500,0.027082
132.092500,0.022573
132.171875,0.029980
132.181875,0.030302
132.191875,0.023861
132.201875,0.025794
132.265625,0.005504
132.275625,0.029336
132.285625,0.008725
132.295625,0.035133
132.359375,-0.008666
132.369375,0.003250
132.379375,0.008403
132.389375,0.042862
132.468750,-0.000292
132.478750,-0.011242
132.488750,0.018709
132.498750,0.010979
132.562500,0.024183
132.572500,-0.006089
132.582500,0.038998
132.592500,0.037065
132.671875,0.005504
132.681875,0.005827
132.691875,0.003894
132.701875,0.015166
132.765625,0.034167
132.775625,0.052202
132.785625,0.008081
132.795625,0.013556
132.859375,0.022251
132.869375,-0.005123
132.879375,0.007759
132.889375,0.035455
132.968750,0.009691
132.978750,0.022895
132.988750,0.016454
132.998750,0.046727
133.062500,-0.004157
133.072500,-0.006733
133.082500,0.008725
133.092500,-0.014141
133.171875,-0.002869
133.181875,-0.012208
133.191875,0.013878
133.201875,0.040930
133.265625,-0.008022
133.275625,-0.018327
133.285625,0.012268
133.295625,0.014200
133.359375,-0.005123
133.369375,0.023217
133.379375,0.033845
133.389375,0.012268
133.468750,0.015166
133.478750,0.014200
133.488750,0.018386
133.498750,0.031591
133.562500,0.003894
133.572500,0.035455
133.582500,0.022251
133.592500,-0.010598
133.671875,0.036099
133.681875,-0.012530
133.691875,0.034489
133.701875,0.036099
133.765625,-0.000937
133.775625,0.038998
133.785625,0.003250
133.795625,0.036743
133.875000,-0.010920
133.885000,0.036743
133.895000,-0.007378
133.905000,0.037065
133.968750,-0.013819
133.978750,-0.013174
133.988750,0.013234
133.998750,0.039320
134.062500,0.030624
134.072500,-0.008022
134.082500,0.013234
134.092500,-0.001581
134.171875,-0.002869
134.181875,-0.012852
134.191875,0.031913
134.201875,-0.006411
134.265625,-0.012208
134.275625,0.041896
134.285625,0.008725
134.295625,-0.015429
134.375000,-0.009632
134.385000,0.032879
134.395000,0.047371
134.405000,0.010979
134.468750,-0.007378
134.478750,0.032557
134.488750,-0.005767
134.498750,0.034811
134.562500,-0.009632
134.572500,-0.006733
134.582500,0.021929
134.592500,-0.013819
134.671875,0.027726
134.681875,-0.001259
134.691875,0.023861
134.701875,-0.010920
134.765625,-0.006089
134.775625,-0.008988
134.785625,-0.010276
134.795625,0.003250
134.875000,0.019675
134.885000,-0.004157
134.895000,0.028692
134.905000,0.005182
134.968750,0.015166
134.978750,0.030946
134.988750,0.016454
134.998750,-0.000937
135.062500,0.039964
135.072500,0.027726
135.082500,0.011623
135.092500,0.018064
135.171875,0.017420
135.181875,0.015166
135.191875,0.000996
135.201875,0.017420
135.265625,0.031591
135.275625,-0.005767
135.285625,-0.007055
135.295625,-0.004801
135.375000,0.019997
135.385000,0.017098
135.395000,0.045439
135.405000,0.030302
135.468750,0.015810
135.478750,0.023539
135.488750,-0.002225
135.498750,-0.012208
135.562500,0.045439
135.572500,0.036099
135.582500,0.028692
135.592500,0.004860
135.671875,0.019675
135.681875,-0.001903
135.691875,-0.015429
135.701875,0.038354
135.765625,0.048659
135.775625,-0.006089
135.785625,0.015810
135.795625,0.012590
135.875000,-0.004479
135.885000,0.018709
135.895000,0.032557
135.905000,0.033845
135.968750,-0.001259
135.978750,0.013234
135.988750,-0.012208
135.998750,-0.000937
136.062500,0.032235
136.072500,-0.007378
136.082500,0.015166
136.092500,0.028048
136.171875,-0.001903
136.181875,0.011945
136.191875,0.010335
136.201875,-0.011242
136.265625,0.026438
136.275625,0.019353
136.285625,-0.016395
136.295625,0.029980
136.375000,0.019997
136.385000,0.023861
136.395000,0.015166
136.405000,0.031269
136.468750,0.029014
136.478750,-0.006411
136.488750,0.040286
136.498750,0.032557
136.562500,-0.011886
136.572500,0.000674
136.582500,0.030302
136.592500,-0.004479
136.671875,0.022573
136.681875,-0.001581
136.691875,-0.008666
136.701875,-0.006733
136.765625,0.006471
136.775625,-0.006411
136.785625,-0.013496
136.795625,0.011301
136.875000,0.015810
136.885000,0.029014
136.895000,0.040286
136.905000,-0.005123
136.968750,-0.000614
136.978750,0.027404
136.988750,0.005827
136.998750,0.018386
137.062500,0.051880
137.072500,0.013878
137.082500,0.043184
137.092500,0.003572
137.171875,0.036421
137.181875,0.032235
137.191875,0.031269
137.201875,0.039642
137.265625,0.031913
137.275625,-0.010920
137.285625,0.005504
137.295625,0.011945
137.375000,-0.012208
137.385000,-0.004801
137.395000,-0.000614
137.405000,-0.019293
137.468750,0.032879
137.478750,0.021929
137.488750,0.022573
137.498750,0.033523
137.562500,0.037710
137.572500,0.013556
137.582500,0.012268
137.592500,-0.002225
137.671875,-0.008988
137.681875,0.002284
137.691875,-0.012208
137.701875,0.016776
137.765625,0.020963
137.775625,0.039320
137.785625,0.009691
137.795625,-0.005767
137.859375,0.008725
137.869375,0.020963
137.879375,0.005504
137.889375,0.021285
137.968750,0.040286
137.978750,0.040608
137.988750,0.035455
137.998750,0.007115
138.062500,0.016454
138.072500,0.042218
138.082500,0.028370
138.092500,0.032557
138.171875,0.027726
138.181875,0.017098
138.191875,0.018386
138.201875,0.034811
138.265625,0.036099
138.275625,0.021607
138.285625,0.009047
138.295625,0.018064
138.375000,0.022251
138.385000,0.007115
138.395000,-0.005123
138.405000,0.017742
138.468750,0.004538
138.478750,0.037065
138.488750,0.010013
138.498750,0.042862
138.562500,0.014844
138.572500,-0.002869
138.582500,0.015166
138.592500,0.031269
138.671875,0.021607
138.681875,-0.011564
138.691875,0.009047
138.701875,0.003894
138.765625,-0.012852
138.775625,0.029014
138.785625,0.020319
138.795625,0.004860
138.875000,2.963812E-5
138.885000,0.000996
138.895000,0.013234
138.905000,-0.013819
138.968750,0.031591
138.978750,-0.007378
138.988750,0.010657
138.998750,-0.000937
139.062500,0.018064
139.072500,0.011945
139.082500,0.045117
139.092500,0.033201
139.171875,-0.014785
139.181875,-0.011564
139.191875,0.018709
139.201875,-0.006089
139.265625,0.033845
139.275625,0.016132
139.285625,0.013556
139.295625,0.030302
139.375000,0.048337
139.385000,0.043506
139.395000,0.034811
139.405000,0.033523
139.468750,-0.024124
139.478750,0.027726
139.488750,0.041252
139.498750,-0.017361
139.562500,0.017098
139.572500,0.012590
139.582500,0.018386
139.592500,0.040930
139.671875,-0.005445
139.681875,-0.003513
139.691875,0.018709
139.701875,0.005504
139.765625,-0.013496
139.775625,-0.001903
139.785625,-0.012852
139.795625,0.005504
139.859375,-0.006089
139.869375,0.030946
139.879375,0.022573
139.889375,0.040930
139.968750,-0.013819
139.978750,-0.013496
139.988750,-0.000937
139.998750,0.037387
140.125000,-0.001259
140.135000,0.019997
140.145000,-0.007700
140.155000,-0.026056
140.203125,0.006471
140.213125,0.001318
140.223125,-0.008344
140.233125,0.029014
140.281250,0.034489
140.291250,-0.002225
140.301250,0.038676
140.311250,-0.019937
140.359375,-0.012530
140.369375,0.043828
140.379375,0.039642
140.389375,0.021929
140.468750,0.032879
140.478750,0.030302
140.488750,0.029980
140.498750,0.008725
140.562500,0.020641
140.572500,0.003894
140.582500,0.012912
140.592500,0.038998
140.671875,0.025150
140.681875,0.015166
140.691875,0.040930
140.701875,0.027404
140.765625,0.026116
140.775625,0.013878
140.785625,0.006793
140.795625,-0.013819
140.859375,0.040608
140.869375,0.013234
140.879375,0.030946
140.889375,0.015166
140.968750,0.039320
140.978750,0.032879
140.988750,-0.014785
140.998750,-0.000937
141.062500,-0.013819
141.072500,-0.005123
141.082500,-0.013174
141.092500,-0.008022
141.171875,0.028692
141.181875,0.008725
141.191875,0.038032
141.201875,-0.007378
141.265625,-0.011886
141.275625,0.011623
141.285625,0.024828
141.295625,0.020963
141.375000,-0.010276
141.385000,0.043506
141.395000,0.001318
141.405000,0.008725
141.468750,0.019031
141.478750,0.026760
141.488750,-0.006089
141.498750,0.019997
141.562500,0.016454
141.572500,0.010335
141.582500,0.015488
141.592500,0.009047
141.671875,-0.009954
141.681875,0.004860
141.691875,0.010657
141.701875,-0.007700
141.765625,-0.008344
141.775625,0.036743
141.785625,-0.010276
141.795625,0.004860
141.875000,-0.002547
141.885000,0.000352
141.895000,-0.016395
141.905000,0.019997
141.968750,-0.008022
141.978750,0.025150
141.988750,0.039964
141.998750,0.024183
142.062500,0.008403
142.072500,0.010657
142.082500,0.041252
142.092500,0.022895
142.171875,-0.003191
142.181875,0.013234
142.191875,0.033523
142.201875,0.008081
142.265625,0.025794
142.275625,0.017742
142.285625,0.036743
142.295625,0.010657
142.375000,-0.002869
142.385000,0.014200
142.395000,0.029980
142.405000,0.022895
142.468750,0.028370
142.478750,0.033201
142.488750,0.016454
142.498750,0.032557
142.562500,0.032557
142.572500,0.034811
142.582500,0.002928
142.592500,-0.012208
142.671875,0.014200
142.681875,0.029980
142.691875,0.048981
142.701875,-0.006733
142.765625,-0.003835
142.775625,0.035133
142.785625,0.039642
142.795625,0.011301
142.875000,0.035777
142.885000,0.005827
142.895000,0.010013
142.905000,0.039642
142.968750,0.022573
142.978750,0.007115
142.988750,-0.012208
142.998750,0.010657
143.062500,0.035455
143.072500,0.041574
143.082500,0.011301
143.092500,0.028370
143.171875,0.036099
143.181875,0.007759
143.191875,0.004860
143.201875,0.011623
143.265625,0.026438
143.275625,0.040930
143.285625,-0.006089
143.295625,-0.008988
143.375000,0.031591
143.385000,0.035133
143.395000,0.034811
143.405000,0.012268
143.468750,0.013234
143.478750,0.012268
143.488750,0.000352
143.498750,-0.004801
143.562500,0.021285
143.572500,-0.002547
143.582500,0.038354
143.592500,0.017742
143.671875,-0.015429
143.681875,-0.009632
143.691875,0.020963
143.701875,-0.001903
143.765625,0.094068
143.775625,0.013556
143.785625,-0.037650
143.795625,0.115324
143.859375,0.087949
143.869375,0.004538
143.879375,0.050592
143.889375,0.044151
143.968750,-0.013496
143.978750,0.008725
143.988750,-0.027667
143.998750,0.081508
144.062500,0.106306
144.072500,-0.002547
144.082500,0.057355
144.092500,0.033523
144.171875,0.012268
144.181875,-0.000614
144.191875,0.095357
144.201875,-0.000614
144.265625,0.118222
144.275625,0.029980
144.285625,-0.008344
144.295625,0.072813
144.375000,0.062829
144.385000,-0.008344
144.395000,0.054778
144.405000,-0.040227
144.468750,0.019675
144.478750,0.040286
144.488750,0.062185
144.498750,0.045761
144.562500,0.007759
144.572500,-0.043125
144.582500,0.093746
144.592500,-0.035396
144.671875,0.033201
144.681875,0.019997
144.691875,0.009369
144.701875,0.011623
144.765625,-0.026701
144.775625,0.044473
144.785625,0.041896
144.795625,-0.043125
144.875000,0.028692
144.885000,0.032879
144.895000,0.074745
144.905000,-0.023480
144.968750,0.038998
144.978750,0.036421
144.988750,-0.021870
144.998750,0.091492
145.062500,-0.029921
145.072500,0.072813
145.082500,0.029980
145.092500,-0.031531
145.171875,0.017098
145.181875,0.006793
145.191875,0.041252
145.201875,0.044473
145.265625,-0.036684
145.275625,0.087949
145.285625,-0.035718
145.295625,0.086017
145.375000,0.093746
145.385000,2.963812E-5
145.395000,0.074101
145.405000,0.008725
145.468750,0.091170
145.478750,-0.005767
145.488750,0.058321
145.498750,0.030302
145.562500,0.001962
145.572500,0.047693
145.582500,0.032879
145.592500,0.004538
145.671875,0.011623
145.681875,0.005504
145.691875,0.019353
145.701875,0.035777
145.765625,0.038676
145.775625,0.040930
145.785625,-0.004157
145.795625,0.026760
145.875000,0.104052
145.885000,-0.019937
145.895000,0.086661
145.905000,0.036421
145.968750,0.098255
145.978750,0.001318
145.988750,0.088593
145.998750,-0.029921
146.062500,0.057677
146.072500,-0.038938
146.082500,0.058643
146.092500,-0.017039
146.171875,0.041896
146.181875,0.003250
146.191875,0.088915
146.201875,-0.040227
146.265625,0.070237
146.275625,0.011945
146.285625,0.003894
146.295625,0.108883
146.359375,0.082474
146.369375,0.008403
146.379375,0.079898
146.389375,0.010335
146.468750,0.102442
146.478750,-0.028311
146.488750,0.086661
146.498750,-0.022192
146.562500,0.052202
146.572500,-0.023802
146.582500,0.066050
146.592500,0.049303
146.671875,0.009047
146.681875,0.092780
146.691875,-0.034430
146.701875,0.095357
146.765625,0.001640
146.775625,0.054778
146.785625,-0.039583
146.795625,0.044473
146.859375,-0.046990
146.869375,0.059609
146.879375,0.047693
146.889375,0.037065
146.968750,0.042540
146.978750,0.045439
146.988750,0.072813
146.998750,-0.002547
147.062500,0.076356
147.072500,0.007759
147.082500,0.011301
147.092500,0.068626
147.171875,-0.030887
147.181875,0.015810
147.191875,0.080542
147.201875,0.006471
147.265625,0.016776
147.275625,0.080542
147.285625,0.046727
147.295625,0.092458
147.375000,-0.018005
147.385000,0.047049
147.395000,-0.027345
147.405000,0.005504
147.468750,0.032557
147.478750,0.026116
147.488750,0.075067
147.498750,-0.023802
147.562500,0.013234
147.572500,0.043828
147.582500,0.023217
147.592500,0.027404
147.671875,0.010335
147.681875,0.088593
147.691875,-0.035074
147.701875,0.085695
147.765625,0.051880
147.775625,0.090848
147.785625,-0.033786
147.795625,0.092136
147.875000,0.070237
147.885000,-0.038938
147.895000,0.075389
147.905000,-0.041837
147.968750,-0.014463
147.978750,0.070237
147.988750,-0.032819
147.998750,0.100509
148.062500,-0.004479
148.072500,0.046727
148.082500,-0.030565
148.092500,0.068948
148.171875,0.081508
148.181875,-0.014141
148.191875,0.065084
148.201875,0.027082
148.265625,0.100509
148.275625,-0.037328
148.285625,0.085695
148.295625,-0.026378
148.375000,0.056388
148.385000,0.018064
148.395000,0.057677
148.405000,0.027726
148.468750,0.068626
148.478750,0.002606
148.488750,0.055744
148.498750,-0.041193
148.562500,0.114680
148.572500,-0.033142
148.582500,0.067982
148.592500,0.001640
148.671875,0.018709
148.681875,0.027082
148.691875,-0.029921
148.701875,0.003572
148.765625,0.099543
148.775625,-0.026056
148.785625,0.086017
148.795625,-0.039905
148.875000,0.103730
148.885000,-0.034108
148.895000,0.087949
148.905000,-0.042481
148.968750,-0.026056
148.978750,0.101798
148.988750,0.005504
148.998750,0.040608
149.062500,-0.044091
149.072500,0.107272
149.082500,-0.027667
149.092500,0.080864
149.171875,0.065728
149.181875,-0.037972
149.191875,0.074101
149.201875,-0.014141
149.265625,0.032879
149.275625,-0.013174
149.285625,0.104052
149.295625,-0.000614
149.375000,0.038032
149.385000,0.017742
149.395000,0.014844
149.405000,0.090526
149.468750,-0.021548
149.478750,0.077644
149.488750,-0.024768
149.498750,0.067016
149.562500,-0.056329
149.572500,0.058643
149.582500,0.013556
149.592500,0.018709
149.671875,-0.006089
149.681875,0.042218
149.691875,-0.007378
149.701875,0.023539
149.765625,-0.033786
149.775625,0.098255
149.785625,-0.014463
149.795625,0.097611
149.875000,0.029014
149.885000,0.031591
149.895000,0.053490
149.905000,0.026760
149.968750,0.066694
149.978750,-0.037650
149.988750,0.070559
149.998750,-0.041193
150.062500,0.086983
150.072500,-0.028311
150.082500,0.085373
150.092500,0.009369
150.171875,0.094390
150.181875,-0.045057
150.191875,0.073135
150.201875,0.032879
150.265625,-0.043125
150.275625,0.035133
150.285625,0.031913
150.295625,0.037065
150.359375,-0.017683
150.369375,0.014200
150.379375,-0.001903
150.389375,0.040608
150.468750,-0.006411
150.478750,0.027404
150.488750,0.019675
150.498750,0.048015
150.562500,0.060253
150.572500,0.012590
150.582500,0.073457
150.592500,0.011301
150.671875,0.064440
150.681875,-0.044413
150.691875,0.087627
150.701875,-0.032175
150.765625,-0.004801
150.775625,0.106306
150.785625,-0.038294
150.795625,0.054134
150.875000,0.035777
150.885000,0.039642
150.895000,0.016776
150.905000,0.013556
150.968750,0.080220
150.978750,-0.005445
150.988750,0.071525
150.998750,0.034811
151.062500,0.075389
151.072500,-0.012852
151.082500,0.046083
151.092500,0.044473
151.171875,0.015488
151.181875,0.090848
151.191875,-0.008344
151.201875,0.068948
151.265625,0.054456
151.275625,-0.011886
151.285625,0.049625
151.295625,-0.022192
151.375000,0.010979
151.385000,0.030946
151.395000,0.023861
151.405000,-0.030243
151.468750,0.016132
151.478750,-0.001903
151.488750,0.029980
151.498750,0.086339
151.562500,0.019675
151.572500,0.045117
151.582500,2.963812E-5
151.592500,0.099221
151.671875,0.080220
151.681875,-0.031853
151.691875,0.045439
151.701875,0.063474
151.765625,0.004860
151.775625,0.081508
151.785625,0.012912
151.795625,0.069915
151.875000,0.000352
151.885000,0.051558
151.895000,0.052846
151.905000,-0.027667
151.968750,0.084729
151.978750,-0.030565
151.988750,0.073779
151.998750,-0.023802
152.062500,0.082152
152.072500,-0.019293
152.082500,0.103730
152.092500,-0.013819
152.171875,0.057355
152.181875,0.013878
152.191875,0.047049
152.201875,-0.003513
152.265625,0.082474
152.275625,-0.007055
152.285625,0.097933
152.295625,-0.040871
152.375000,0.072169
152.385000,-0.043447
152.395000,0.043506
152.405000,0.008725
152.468750,-0.000292
152.478750,0.061863
152.488750,-0.035074
152.498750,0.103730
152.562500,0.059609
152.572500,-0.043769
152.582500,0.059931
152.592500,0.038354
152.671875,0.017420
152.681875,-0.015751
152.691875,0.051880
152.701875,0.032235
152.765625,0.061863
152.775625,-0.022836
152.785625,0.052524
152.795625,0.012268
152.859375,0.032557
152.869375,0.046083
152.879375,0.040930
152.889375,-0.008666
152.968750,0.092780
152.978750,-0.036684
152.988750,0.075711
152.998750,-0.016073
153.062500,-0.008344
153.072500,0.066050
153.082500,-0.004479
153.092500,0.079576
153.171875,0.025150
153.181875,0.072169
153.191875,0.034489
153.201875,0.043506
153.265625,0.057999
153.275625,-0.001259
153.285625,0.036421
153.295625,0.012590
153.359375,0.044795
153.369375,-0.025090
153.379375,0.028048
153.389375,0.055422
153.468750,0.053490
153.478750,-0.002225
153.488750,0.084085
153.498750,0.025472
153.562500,0.006149
153.572500,0.041896
153.582500,0.025150
153.592500,0.057033
153.671875,0.049947
153.681875,0.079576
153.691875,-0.021548
153.701875,0.079898
153.765625,0.096967
153.775625,-0.010598
153.785625,0.074745
153.795625,0.039964
153.859375,0.080864
153.869375,0.050269
153.879375,-0.020260
153.889375,0.067338
153.968750,0.022251
153.978750,0.027726
153.988750,0.087305
153.998750,0.027404
154.062500,0.085373
154.072500,0.001318
154.082500,0.005827
154.092500,0.109205
154.171875,0.043828
154.181875,-0.034752
154.191875,0.051236
154.201875,0.059287
154.265625,0.082474
154.275625,-0.014785
154.285625,0.082152
154.295625,0.043828
154.375000,-0.041193
154.385000,0.108883
154.395000,0.003572
154.405000,0.060575
154.468750,0.048981
154.478750,0.059287
154.488750,-0.030243
154.498750,0.088593
154.562500,-0.019615
154.572500,0.093102
154.582500,0.021607
154.592500,-0.041515
154.671875,0.101475
154.681875,0.054778
154.691875,-0.034752
154.701875,0.076356
154.765625,-0.022192
154.775625,0.081830
154.785625,0.053168
154.795625,-0.039905
154.875000,-0.001903
154.885000,0.073779
154.895000,0.032557
154.905000,0.028692
154.968750,0.106306
154.978750,0.023539
154.988750,0.048337
154.998750,0.045761
155.062500,0.063151
155.072500,0.016776
155.082500,0.081186
155.092500,0.002284
155.171875,0.025472
155.181875,0.057999
155.191875,0.054134
155.201875,0.008081
155.281250,0.027082
155.291250,0.060575
155.301250,0.038354
155.311250,0.024828
155.359375,-0.022514
155.369375,0.083119
155.379375,-0.043447
155.389375,0.070881
155.468750,0.100187
155.478750,0.004538
155.488750,0.072813
155.498750,0.022895
155.562500,-0.002225
155.572500,0.096001
155.582500,-0.002225
155.592500,0.097933
155.671875,-0.033786
155.681875,0.080864
155.691875,-0.014463
155.701875,0.040930
155.765625,0.013556
155.775625,0.078932
155.785625,0.033523
155.795625,-0.020904
155.875000,0.073135
155.885000,-0.022836
155.895000,0.057677
155.905000,0.001318
155.968750,0.012590
155.978750,0.040286
155.988750,0.063474
155.998750,0.012268
156.062500,-0.007055
156.072500,0.033845
156.082500,0.049625
156.092500,0.028370
156.171875,0.021929
156.181875,0.081508
156.191875,0.027082
156.201875,0.036743
156.265625,0.057033
156.275625,0.010335
156.285625,0.039964
156.295625,0.062829
156.375000,0.032879
156.385000,0.095357
156.395000,0.002606
156.405000,0.101153
156.468750,0.060253
156.478750,-0.002869
156.488750,0.089560
156.498750,-0.016395
156.562500,-0.001259
156.572500,0.012912
156.582500,0.105018
156.592500,-0.013819
156.671875,0.030302
156.681875,0.083763
156.691875,-0.010920
156.701875,0.104374
156.765625,0.012912
156.775625,0.032235
156.785625,0.086661
156.795625,0.001962
156.859375,-0.040227
156.869375,0.084407
156.879375,-0.026378
156.889375,0.066050
156.968750,0.065728
156.978750,0.039642
156.988750,-0.000937
156.998750,0.094068
157.062500,0.041574
157.072500,-0.002225
157.082500,0.107272
157.092500,-0.013819
157.171875,0.107916
157.181875,0.003894
157.191875,0.106950
157.201875,-0.036684
157.265625,0.023539
157.275625,0.086661
157.285625,-0.020260
157.295625,0.078932
157.375000,0.102764
157.385000,-0.034108
157.395000,0.057033
157.405000,0.010657
157.468750,0.090204
157.478750,-0.016395
157.488750,0.095034
157.498750,0.017098
157.562500,0.040608
157.572500,0.053490
157.582500,-0.000937
157.592500,0.048015
157.671875,0.006149
157.681875,0.075389
157.691875,0.014522
157.701875,0.030946
157.765625,0.037387
157.775625,0.023539
157.785625,0.061219
157.795625,0.014844
157.875000,-0.023802
157.885000,0.075711
157.895000,0.014844
157.905000,0.054134
157.968750,-0.050854
157.978750,0.079254
157.988750,-0.039583
157.998750,0.083119
158.062500,0.100831
158.072500,-0.002547
158.082500,0.064118
158.092500,0.040608
158.171875,0.077644
158.181875,-0.036684
158.191875,0.084729
158.201875,-0.028633
158.265625,-0.002225
158.275625,0.107594
158.285625,0.016132
158.295625,0.079254
158.375000,0.038998
158.385000,-0.012208
158.395000,0.096323
158.405000,0.005827
158.468750,0.087949
158.478750,-0.028955
158.488750,0.105018
158.498750,0.020319
158.562500,0.077322
158.572500,-0.040227
158.582500,0.085051
158.592500,-0.035718
158.671875,0.093424
158.681875,0.012268
158.691875,0.026438
158.701875,0.057033
158.765625,0.023217
158.775625,0.053490
158.785625,0.052202
158.795625,0.012268
158.875000,0.066372
158.885000,0.006471
158.895000,0.058965
158.905000,0.008081
158.968750,-0.028955
158.978750,0.089238
158.988750,-0.017039
158.998750,0.097933
159.062500,0.044151
159.072500,0.042540
159.082500,0.001640
159.092500,0.066050
159.171875,-0.023480
159.181875,0.089882
159.191875,0.042862
159.201875,-0.022514
159.265625,0.014200
159.275625,0.027404
159.285625,0.058321
159.295625,-0.022836
159.359375,0.025794
159.369375,0.023539
159.379375,0.059609
159.389375,-0.038938
159.468750,0.012590
159.478750,0.036421
159.488750,0.047693
159.498750,-0.023802
159.562500,0.053168
159.572500,-0.004157
159.582500,0.068626
159.592500,-0.031209
159.671875,0.053490
159.681875,-0.011242
159.691875,0.085051
159.701875,-0.035718
159.765625,0.076678
159.775625,-0.024446
159.785625,0.107916
159.795625,-0.016395
159.859375,-0.037650
159.869375,0.088915
159.879375,-0.019937
159.889375,0.069592
159.968750,0.082152
159.978750,-0.008988
159.988750,0.080542
159.998750,0.052846
160.062500,-0.008344
160.072500,0.076356
160.082500,-0.032175
160.092500,0.080542
160.171875,0.059287
160.181875,-0.013496
160.191875,0.098899
160.201875,-0.038294
160.265625,0.002928
160.275625,0.097289
160.285625,-0.020260
160.295625,0.095357
160.359375,-0.031853
160.369375,0.068626
160.379375,-0.033142
160.389375,0.100831
160.468750,0.041574
160.478750,0.030946
160.488750,0.025794
160.498750,0.061219
160.562500,0.082152
160.572500,-0.034752
160.582500,0.116612
160.592500,-0.027345
160.671875,0.030302
160.681875,0.148173
160.691875,0.050914
160.701875,0.085051
160.765625,0.047371
160.775625,0.083441
160.785625,0.070237
160.795625,0.068948
160.859375,0.059609
160.869375,0.057355
160.879375,0.067660
160.889375,0.105340
160.968750,0.178123
160.978750,0.210651
160.988750,0.203565
160.998750,0.157512
161.062500,0.151071
161.072500,0.190361
161.082500,0.163309
161.092500,0.164275
161.171875,0.296960
161.181875,0.272484
161.191875,0.317571
161.201875,0.220634
161.265625,0.333030
161.275625,0.224177
161.285625,0.365235
161.295625,0.257348
161.359375,0.335284
161.369375,0.271196
161.379375,0.296638
161.389375,0.296638
161.468750,0.295672
161.478750,0.415797
161.488750,0.286654
161.498750,0.396152
161.562500,0.310808
161.572500,0.426424
161.582500,0.348488
161.592500,0.342369
161.671875,0.399372
161.681875,0.302757
161.691875,0.396474
161.701875,0.288265
161.765625,0.319826
161.775625,0.402915
161.785625,0.371676
161.795625,0.324334
161.859375,0.370710
161.869375,0.331419
161.879375,0.401304
161.889375,0.420305
161.968750,0.441239
161.978750,0.338182
161.988750,0.416763
161.998750,0.383914
162.062500,0.407745
162.072500,0.295350
162.082500,0.434154
162.092500,0.329809
162.171875,0.400016
162.181875,0.423526
162.191875,0.346234
162.201875,0.444781
162.265625,0.366523
162.275625,0.419339
162.285625,0.334962
162.295625,0.441239
162.359375,0.341081
162.369375,0.405169
162.379375,0.414508
162.389375,0.408712
162.468750,0.315317
162.478750,0.451866
162.488750,0.363947
162.498750,0.361692
162.562500,0.330131
162.572500,0.445747
162.582500,0.310164
162.592500,0.402593
162.671875,0.334962
162.681875,0.386812
162.691875,0.416441
162.701875,0.334962
162.765625,0.352031
162.775625,0.459918
162.785625,0.339471
162.795625,0.440273
162.875000,0.353641
162.885000,0.385524
162.895000,0.383592
162.905000,0.369099
162.968750,0.388100
162.978750,0.417729
162.988750,0.371676
162.998750,0.419661
163.062500,0.392609
163.072500,0.395185
163.082500,0.395185
163.092500,0.399050
163.171875,0.408067
163.181875,0.385846
163.191875,0.386490
163.201875,0.414186
163.265625,0.410966
163.275625,0.397762
163.285625,0.425136
163.295625,0.408067
163.375000,0.403881
163.385000,0.385524
163.395000,0.390355
163.405000,0.367167
163.468750,0.419983
163.478750,0.416441
163.488750,0.419661
163.498750,0.414831
163.562500,0.365557
163.572500,0.374252
163.582500,0.418373
163.592500,0.395507
163.671875,0.382303
163.681875,0.421916
163.691875,0.414508
163.701875,0.368777
163.765625,0.384558
163.775625,0.413864
163.785625,0.371354
163.795625,0.424492
163.859375,0.404847
163.869375,0.418051
163.879375,0.409678
163.889375,0.382625
163.968750,0.368455
163.978750,0.399050
163.988750,0.406779
163.998750,0.415153
164.062500,0.386490
164.072500,0.404203
164.082500,0.386812
164.092500,0.397118
164.171875,0.377795
164.181875,0.369421
164.191875,0.421594
164.201875,0.416119
164.265625,0.397118
164.275625,0.370710
164.285625,0.411932
164.295625,0.372964
164.359375,0.375862
164.369375,0.430289
164.379375,0.394219
164.389375,0.393575
164.468750,0.400016
164.478750,0.381015
164.488750,0.389066
164.498750,0.428679
164.562500,0.337216
164.572500,0.444459
164.582500,0.350098
164.592500,0.432865
164.671875,0.310486
164.681875,0.445103
164.691875,0.338505
164.701875,0.457341
164.765625,0.418373
164.775625,0.308876
164.785625,0.424492
164.795625,0.311452
164.859375,0.442205
164.869375,0.349454
164.879375,0.371032
164.889375,0.394541
164.968750,0.371032
164.978750,0.394863
164.988750,0.356861
164.998750,0.450578
165.062500,0.305977
165.072500,0.428679
165.082500,0.312096
165.092500,0.440917
165.171875,0.309842
165.181875,0.391965
165.191875,0.344946
165.201875,0.401626
165.265625,0.334318
165.275625,0.427713
165.285625,0.367811
165.295625,0.365879
165.375000,0.390999
165.385000,0.335928
165.395000,0.424492
165.405000,0.372642
165.468750,0.450256
165.478750,0.326911
165.488750,0.389066
165.498750,0.415797
165.562500,0.350420
165.572500,0.432865
165.582500,0.367811
165.592500,0.353963
165.671875,0.358794
165.681875,0.417085
165.691875,0.406779
165.701875,0.304367
165.765625,0.405169
165.775625,0.391643
165.785625,0.306299
165.795625,0.393253
165.875000,0.345268
165.885000,0.441239
165.895000,0.372964
165.905000,0.393575
165.968750,0.348810
165.978750,0.398406
165.988750,0.360082
165.998750,0.385846
166.062500,0.425458
166.072500,0.324012
166.082500,0.408067
166.092500,0.365557
166.171875,0.405169
166.181875,0.358794
166.191875,0.329165
166.201875,0.431577
166.265625,0.396152
166.275625,0.335606
166.285625,0.394863
166.295625,0.300825
166.375000,0.426102
166.385000,0.361370
166.395000,0.347522
166.405000,0.324978
166.468750,0.395507
166.478750,0.337216
166.488750,0.416119
166.498750,0.318859
166.562500,0.304367
166.572500,0.418051
166.582500,0.303723
166.592500,0.442205
166.671875,0.401304
166.681875,0.298248
166.691875,0.438340
166.701875,0.315639
166.765625,0.313707
166.775625,0.450578
166.785625,0.324656
166.795625,0.448324
166.875000,0.347844
166.885000,0.373930
166.895000,0.379083
166.905000,0.356539
166.968750,0.430289
166.978750,0.309520
166.988750,0.404847
166.998750,0.305011
167.062500,0.377795
167.072500,0.380371
167.082500,0.390355
167.092500,0.360082
167.171875,0.396152
167.181875,0.344301
167.191875,0.355573
167.201875,0.391321
167.265625,0.409034
167.275625,0.377795
167.285625,0.394541
167.295625,0.363302
167.359375,0.381981
167.369375,0.397762
167.379375,0.372964
167.389375,0.396796
167.468750,0.360404
167.478750,0.442205
167.488750,0.318859
167.498750,0.431899
167.562500,0.323690
167.572500,0.388100
167.582500,0.383270
167.592500,0.336572
167.671875,0.374252
167.681875,0.455409
167.691875,0.309842
167.701875,0.410644
167.765625,0.338182
167.775625,0.360404
167.785625,0.445103
167.795625,0.334318
167.859375,0.315317
167.869375,0.391965
167.879375,0.367167
167.889375,0.324012
167.968750,0.395830
167.978750,0.427390
167.988750,0.301791
167.998750,0.401626
168.062500,0.339793
168.072500,0.436086
168.082500,0.349454
168.092500,0.379405
168.171875,0.443493
168.181875,0.347844
168.191875,0.456375
168.201875,0.361370
168.265625,0.451544
168.275625,0.300503
168.285625,0.411932
168.295625,0.363302
168.375000,0.445747
168.385000,0.332386
168.395000,0.389389
168.405000,0.382948
168.468750,0.425780
168.478750,0.339471
168.488750,0.436408
168.498750,0.340437
168.562500,0.382625
168.572500,0.374896
168.582500,0.409034
168.592500,0.341403
168.671875,0.324012
168.681875,0.411932
168.691875,0.350098
168.701875,0.386490
168.765625,0.390677
168.775625,0.325945
168.785625,0.433832
168.795625,0.379083
168.859375,0.356217
168.869375,0.365879
168.879375,0.369099
168.889375,0.387134
168.968750,0.448646
168.978750,0.318859
168.988750,0.417729
168.998750,0.346878
169.062500,0.428679
169.072500,0.358794
169.082500,0.435442
169.092500,0.366845
169.171875,0.371032
169.181875,0.353963
169.191875,0.358794
169.201875,0.420949
169.265625,0.305977
169.275625,0.441239
169.285625,0.314351
169.295625,0.442205
169.375000,0.405813
169.385000,0.389711
169.395000,0.413542
169.405000,0.405169
169.468750,0.371998
169.478750,0.363947
169.488750,0.453477
169.498750,0.345912
169.562500,0.394863
169.572500,0.400016
169.582500,0.333030
169.592500,0.450900
169.671875,0.358794
169.681875,0.345912
169.691875,0.446069
169.701875,0.361048
169.765625,0.373930
169.775625,0.451222
169.785625,0.323046
169.795625,0.408390
169.875000,0.368777
169.885000,0.420949
169.895000,0.351065
169.905000,0.341403
169.968750,0.322402
169.978750,0.383592
169.988750,0.351387
169.998750,0.430289
170.062500,0.357828
170.072500,0.383914
170.082500,0.418051
170.092500,0.331419
170.171875,0.356539
170.181875,0.383914
170.191875,0.383270
170.201875,0.369099
170.265625,0.433509
170.275625,0.339471
170.285625,0.448002
170.295625,0.352675
170.375000,0.342047
170.385000,0.441883
170.395000,0.347200
170.405000,0.345590
170.468750,0.338505
170.478750,0.444781
170.488750,0.365879
170.498750,0.416119
170.562500,0.345268
170.572500,0.417085
170.582500,0.366523
170.592500,0.403881
170.671875,0.420949
170.681875,0.331741
170.691875,0.431577
170.701875,0.349454
170.765625,0.442205
170.775625,0.320792
170.785625,0.414831
170.795625,0.318859
170.875000,0.390355
170.885000,0.354929
170.895000,0.375862
170.905000,0.400016
170.968750,0.364269
170.978750,0.375862
170.988750,0.417729
170.998750,0.336572
171.062500,0.351387
171.072500,0.457341
171.082500,0.333030
171.092500,0.429967
171.171875,0.400338
171.181875,0.367811
171.191875,0.394863
171.201875,0.350098
171.265625,0.440595
171.275625,0.311774
171.285625,0.412254
171.295625,0.329809
171.375000,0.360082
171.385000,0.354285
171.395000,0.369099
171.405000,0.344624
171.468750,0.377151
171.478750,0.420949
171.488750,0.405813
171.498750,0.418373
171.562500,0.410322
171.572500,0.419339
171.582500,0.414508
171.592500,0.425458
171.671875,0.370388
171.681875,0.394541
171.691875,0.393897
171.701875,0.376184
171.765625,0.410000
171.775625,0.411932
171.785625,0.410644
171.795625,0.408390
171.875000,0.418051
171.885000,0.413542
171.895000,0.393897
171.905000,0.388100
171.968750,0.400338
171.978750,0.415475
171.988750,0.366845
171.998750,0.369421
172.062500,0.372642
172.072500,0.423204
172.082500,0.393897
172.092500,0.410000
172.171875,0.387456
172.181875,0.335928
172.191875,0.435442
172.201875,0.311452
172.265625,0.421272
172.275625,0.319504
172.285625,0.383270
172.295625,0.417407
172.375000,0.346556
172.385000,0.458307
172.395000,0.336894
172.405000,0.323046
172.468750,0.384880
172.478750,0.401949
172.488750,0.332064
172.498750,0.422882
172.562500,0.406135
172.572500,0.336250
172.582500,0.438662
172.592500,0.345590
172.671875,0.336250
172.681875,0.348810
172.691875,0.469579
172.701875,0.320470
172.765625,0.432865
172.775625,0.363302
172.785625,0.410644
172.795625,0.391643
172.875000,0.345268
172.885000,0.430289
172.895000,0.419017
172.905000,0.395185
172.968750,0.425780
172.978750,0.313063
172.988750,0.410322
172.998750,0.335928
173.062500,0.379405
173.072500,0.453155
173.082500,0.317893
173.092500,0.373930
173.171875,0.454443
173.181875,0.313707
173.191875,0.413220
173.201875,0.357828
173.265625,0.310486
173.275625,0.381981
173.285625,0.388100
173.295625,0.352353
173.375000,0.434798
173.385000,0.333674
173.395000,0.378439
173.405000,0.354607
173.468750,0.394863
173.478750,0.411610
173.488750,0.337216
173.498750,0.415153
173.562500,0.445747
173.572500,0.321758
173.582500,0.407745
173.592500,0.341081
173.671875,0.314351
173.681875,0.428357
173.691875,0.303079
173.701875,0.390033
173.765625,0.393575
173.775625,0.391965
173.785625,0.359760
173.795625,0.450256
173.859375,0.381659
173.869375,0.338182
173.879375,0.446714
173.889375,0.399372
173.968750,0.390999
173.978750,0.392931
173.988750,0.346234
173.998750,0.449290
174.062500,0.400016
174.072500,0.356539
174.082500,0.385202
174.092500,0.347522
174.171875,0.390677
174.181875,0.353963
174.191875,0.441239
174.201875,0.311774
174.265625,0.420949
174.275625,0.305333
174.285625,0.432543
174.295625,0.308876
174.359375,0.392287
174.369375,0.342369
174.379375,0.362336
174.389375,0.373286
174.468750,0.447680
174.478750,0.326911
174.488750,0.441883
174.498750,0.301469
174.562500,0.372320
174.572500,0.359438
174.582500,0.442205
174.592500,0.317893
174.671875,0.296960
174.681875,0.427390
174.691875,0.300825
174.701875,0.415153
174.765625,0.332386
174.775625,0.389066
174.785625,0.354285
174.795625,0.351065
174.875000,0.370065
174.885000,0.346556
174.895000,0.443493
174.905000,0.377151
174.968750,0.402271
174.978750,0.385846
174.988750,0.437374
174.998750,0.339471
175.062500,0.358794
175.072500,0.401626
175.082500,0.379083
175.092500,0.397762
175.171875,0.391321
175.181875,0.388422
175.191875,0.382303
175.201875,0.418695
175.265625,0.413220
175.275625,0.390355
175.285625,0.379727
175.295625,0.369421
175.375000,0.402915
175.385000,0.337860
175.395000,0.432865
175.405000,0.364913
175.468750,0.429645
175.478750,0.310486
175.488750,0.422238
175.498750,0.303079
175.562500,0.353641
175.572500,0.396474
175.582500,0.405491
175.592500,0.332708
175.671875,0.455087
175.681875,0.332708
175.691875,0.396796
175.701875,0.425780
175.765625,0.400016
175.775625,0.339471
175.785625,0.450900
175.795625,0.320148
175.875000,0.404525
175.885000,0.334962
175.895000,0.384236
175.905000,0.380693
175.968750,0.321436
175.978750,0.464104
175.988750,0.303723
175.998750,0.432865
176.062500,0.323368
176.072500,0.414508
176.082500,0.314995
176.092500,0.412576
176.171875,0.377795
176.181875,0.387778
176.191875,0.389066
176.201875,0.381015
176.265625,0.438018
176.275625,0.312741
176.285625,0.435442
176.295625,0.313063
176.375000,0.442849
176.385000,0.309520
176.395000,0.418051
176.405000,0.402593
176.468750,0.377795
176.478750,0.378117
176.488750,0.395185
176.498750,0.370388
176.562500,0.309842
176.572500,0.407745
176.582500,0.309842
176.592500,0.379083
176.734375,0.298570
176.744375,0.429323
176.754375,0.315961
176.764375,0.451866
176.843750,0.443815
176.853750,0.305333
176.863750,0.457341
176.873750,0.308876
176.968750,0.423848
176.978750,0.320148
176.988750,0.440595
176.998750,0.301469
177.171875,0.313707
177.181875,0.458307
177.191875,0.370388
177.201875,0.396796
177.375000,0.413542
177.385000,0.381659
177.395000,0.389711
177.405000,0.386168
177.500000,0.416441
177.510000,0.347844
177.520000,0.387134
177.530000,0.369421
177.671875,0.433509
177.681875,0.331741
177.691875,0.421916
177.701875,0.369743
177.812500,0.364591
177.822500,0.371676
177.832500,0.368455
177.842500,0.393253
177.984375,0.407423
177.994375,0.314673
178.004375,0.411610
178.014375,0.340437
178.062500,0.399694
178.072500,0.369743
178.082500,0.378761
178.092500,0.324334
178.171875,0.382625
178.181875,0.377151
178.191875,0.342047
178.201875,0.404847
178.265625,0.439628
178.275625,0.317893
178.285625,0.448646
178.295625,0.333674
178.375000,0.367489
178.385000,0.352997
178.395000,0.424492
178.405000,0.392287
178.468750,0.349132
178.478750,0.440595
178.488750,0.345912
178.498750,0.445425
178.562500,0.404525
178.572500,0.344946
178.582500,0.425458
178.592500,0.358472
178.671875,0.446069
178.681875,0.323368
178.691875,0.451866
178.701875,0.304689
178.765625,0.391321
178.775625,0.387456
178.785625,0.377151
178.795625,0.419339
178.859375,0.301469
178.869375,0.408712
178.879375,0.329809
178.889375,0.336572
178.968750,0.390033
178.978750,0.377151
178.988750,0.333030
178.998750,0.444459
179.062500,0.403881
179.072500,0.362980
179.082500,0.425780
179.092500,0.337538
179.171875,0.451222
179.181875,0.334962
179.191875,0.449290
179.201875,0.329809
179.265625,0.334962
179.275625,0.443493
179.285625,0.343335
179.295625,0.431577
179.375000,0.337538
179.385000,0.414831
179.395000,0.308554
179.405000,0.385846
179.468750,0.320470
179.478750,0.456697
179.488750,0.339471
179.498750,0.459274
179.562500,0.442527
179.572500,0.323690
179.582500,0.445103
179.592500,0.332386
179.671875,0.315317
179.681875,0.434476
179.691875,0.333674
179.701875,0.456375
179.765625,0.320470
179.775625,0.422882
179.785625,0.370065
179.795625,0.346556
179.875000,0.376184
179.885000,0.361692
179.895000,0.413864
179.905000,0.399050
179.968750,0.332064
179.978750,0.465715
179.988750,0.346556
179.998750,0.433509
180.062500,0.419661
180.072500,0.313707
180.082500,0.432865
180.092500,0.333030
180.171875,0.399050
180.181875,0.401949
180.191875,0.323368
180.201875,0.434476
180.265625,0.418051
180.275625,0.303401
180.285625,0.443815
180.295625,0.336894
180.359375,0.398084
180.369375,0.322724
180.379375,0.444781
180.389375,0.420627
180.468750,0.438340
180.478750,0.330131
180.488750,0.418373
180.498750,0.388422
180.609375,0.423526
180.619375,0.377151
180.629375,0.388100
180.639375,0.393575
180.687500,0.433509
180.697500,0.314029
180.707500,0.445103
180.717500,0.351387
180.765625,0.360404
180.775625,0.396152
180.785625,0.399372
180.795625,0.383592
180.875000,0.347522
180.885000,0.422238
180.895000,0.394863
180.905000,0.420305
180.968750,0.365235
180.978750,0.369099
180.988750,0.375862
180.998750,0.366845
181.062500,0.342369
181.072500,0.377473
181.082500,0.366201
181.092500,0.397118
181.171875,0.387778
181.181875,0.375862
181.191875,0.392287
181.201875,0.329165
181.265625,0.310164
181.275625,0.437052
181.285625,0.327877
181.295625,0.430933
181.359375,0.402593
181.369375,0.323690
181.379375,0.453155
181.389375,0.376507
181.468750,0.384558
181.478750,0.362014
181.488750,0.410000
181.498750,0.313385
181.562500,0.379405
181.572500,0.393575
181.582500,0.318859
181.592500,0.445103
181.671875,0.454121
181.681875,0.351065
181.691875,0.409034
181.701875,0.364269
181.765625,0.433509
181.775625,0.307266
181.785625,0.448324
181.795625,0.311774
181.875000,0.328521
181.885000,0.438018
181.895000,0.325623
181.905000,0.354285
181.968750,0.402915
181.978750,0.324334
181.988750,0.450900
181.998750,0.335928
182.062500,0.372320
182.072500,0.344624
182.082500,0.444459
182.092500,0.341403
182.171875,0.390355
182.181875,0.320470
182.191875,0.434154
182.201875,0.338827
182.265625,0.331097
182.275625,0.426424
182.285625,0.380371
182.295625,0.331419
182.359375,0.352997
182.369375,0.394541
182.379375,0.386812
182.389375,0.324656
182.468750,0.351065
182.478750,0.423204
182.488750,0.344301
182.498750,0.456053
182.562500,0.360404
182.572500,0.388422
182.582500,0.385846
182.592500,0.366845
182.671875,0.429645
182.681875,0.352353
182.691875,0.449290
182.701875,0.352031
182.765625,0.443171
182.775625,0.324656
182.785625,0.457019
182.795625,0.365557
182.859375,0.418051
182.869375,0.337538
182.879375,0.401304
182.889375,0.375862
182.968750,0.382303
182.978750,0.388100
182.988750,0.369099
182.998750,0.394219
183.062500,0.366845
183.072500,0.406779
183.082500,0.373930
183.092500,0.396152
183.171875,0.452832
183.181875,0.302113
183.191875,0.446069
183.201875,0.337538
183.265625,0.405491
183.275625,0.320792
183.285625,0.445747
183.295625,0.308876
183.375000,0.361692
183.385000,0.442205
183.395000,0.370710
183.405000,0.403237
183.468750,0.358150
183.478750,0.372964
183.488750,0.442849
183.498750,0.360082
183.562500,0.351387
183.572500,0.375540
183.582500,0.378117
183.592500,0.364913
183.671875,0.394541
183.681875,0.401949
183.691875,0.361692
183.701875,0.370388
183.765625,0.418051
183.775625,0.366201
183.785625,0.400016
183.795625,0.338182
183.875000,0.362658
183.885000,0.387456
183.895000,0.410966
183.905000,0.388422
183.968750,0.403881
183.978750,0.353963
183.988750,0.399694
183.998750,0.373608
184.062500,0.360082
184.072500,0.409034
184.082500,0.373608
184.092500,0.424492
184.171875,0.326911
184.181875,0.444781
184.191875,0.317571
184.201875,0.458629
184.265625,0.462816
184.275625,0.358150
184.285625,0.370065
184.295625,0.402593
184.375000,0.361370
184.385000,0.396796
184.395000,0.359116
184.405000,0.383914
184.468750,0.389389
184.478750,0.345912
184.488750,0.387456
184.498750,0.402593
184.562500,0.363624
184.572500,0.455087
184.582500,0.343335
184.592500,0.433509
184.671875,0.424492
184.681875,0.325623
184.691875,0.427713
184.701875,0.347844
184.765625,0.329809
184.775625,0.441561
184.785625,0.340115
184.795625,0.411288
184.875000,0.445747
184.885000,0.311130
184.895000,0.426102
184.905000,0.326267
184.968750,0.399372
184.978750,0.412576
184.988750,0.326589
184.998750,0.446391
185.062500,0.335284
185.072500,0.388744
185.082500,0.375862
185.092500,0.364913
185.171875,0.359116
185.181875,0.433509
185.191875,0.322402
185.201875,0.435120
185.265625,0.315317
185.275625,0.412576
185.285625,0.365235
185.295625,0.386812
185.359375,0.409034
185.369375,0.342047
185.379375,0.439950
185.389375,0.355251
185.468750,0.317249
185.478750,0.390677
185.488750,0.382948
185.498750,0.369421
185.562500,0.333352
185.572500,0.349132
185.582500,0.445103
185.592500,0.317893
185.671875,0.316283
185.681875,0.412254
185.691875,0.423848
185.701875,0.306299
185.765625,0.340759
185.775625,0.427068
185.785625,0.367811
185.795625,0.342369
185.859375,0.363302
185.869375,0.451544
185.879375,0.395507
185.889375,0.374252
185.968750,0.320148
185.978750,0.424492
185.988750,0.394541
185.998750,0.339149
186.062500,0.395507
186.072500,0.307266
186.082500,0.421272
186.092500,0.404847
186.171875,0.296316
186.181875,0.400016
186.191875,0.359438
186.201875,0.330775
186.265625,0.423204
186.275625,0.335284
186.285625,0.442205
186.295625,0.333030
186.375000,0.371676
186.385000,0.397118
186.395000,0.349776
186.405000,0.421916
186.468750,0.329487
186.478750,0.412898
186.488750,0.398084
186.498750,0.306622
186.562500,0.402593
186.572500,0.382303
186.582500,0.365235
186.592500,0.385202
186.671875,0.406457
186.681875,0.321758
186.691875,0.418051
186.701875,0.315317
186.765625,0.442205
186.775625,0.323690
186.785625,0.434798
186.795625,0.377795
186.859375,0.339149
186.869375,0.453477
186.879375,0.328843
186.889375,0.403559
186.968750,0.369099
186.978750,0.395830
186.988750,0.338182
186.998750,0.422882
187.062500,0.379083
187.072500,0.402915
187.082500,0.324978
187.092500,0.442849
187.171875,0.435764
187.181875,0.358150
187.191875,0.395830
187.201875,0.391643
187.265625,0.371032
187.275625,0.448002
187.285625,0.319504
187.295625,0.421594
187.375000,0.428357
187.385000,0.329809
187.395000,0.447680
187.405000,0.418051
187.468750,0.353641
187.478750,0.386168
187.488750,0.356539
187.498750,0.409034
187.562500,0.447358
187.572500,0.356861
187.582500,0.387134
187.592500,0.400338
187.671875,0.410322
187.681875,0.341725
187.691875,0.400338
187.701875,0.336250
187.765625,0.471189
187.775625,0.356861
187.785625,0.449934
187.795625,0.366845
187.875000,0.435120
187.885000,0.348488
187.895000,0.457341
187.905000,0.356217
187.968750,0.397118
187.978750,0.332386
187.988750,0.407101
187.998750,0.321114
188.062500,0.365235
188.072500,0.382948
188.082500,0.399372
188.092500,0.378761
188.171875,0.404203
188.181875,0.425458
188.191875,0.351065
188.201875,0.443815
188.265625,0.438018
188.275625,0.316605
188.285625,0.449612
188.295625,0.323046
188.359375,0.432221
188.369375,0.308876
188.379375,0.435120
188.389375,0.322402
188.468750,0.357183
188.478750,0.365235
188.488750,0.350420
188.498750,0.382303
188.568125,0.324656
188.578125,0.425458
188.588125,0.339149
188.598125,0.373930
188.671875,0.426746
188.681875,0.344624
188.691875,0.393575
188.701875,0.333674
188.765625,0.432221
188.775625,0.348488
188.785625,0.359438
188.795625,0.449612
188.859375,0.423848
188.869375,0.418695
188.879375,0.303401
188.889375,0.366845
188.968750,0.377151
188.978750,0.453477
188.988750,0.310164
188.998750,0.392609
189.062500,0.414831
189.072500,0.345912
189.082500,0.441561
189.092500,0.350420
189.171875,0.365879
189.181875,0.379727
189.191875,0.436408
189.201875,0.361370
189.265625,0.344946
189.275625,0.449934
189.285625,0.309198
189.295625,0.412576
189.359375,0.402271
189.369375,0.426746
189.379375,0.336250
189.389375,0.348488
189.468750,0.325945
189.478750,0.351387
189.488750,0.428035
189.498750,0.342369
189.562500,0.334318
189.572500,0.352675
189.582500,0.445425
189.592500,0.343013
189.671875,0.445747
189.681875,0.370388
189.691875,0.367811
189.701875,0.438340
189.765625,0.338505
189.775625,0.415797
189.785625,0.390033
189.795625,0.330131
189.859375,0.409678
189.869375,0.328843
189.879375,0.427713
189.889375,0.344946
189.968750,0.380049
189.978750,0.320470
189.988750,0.443171
189.998750,0.337860
190.062500,0.306299
190.072500,0.371676
190.082500,0.446069
190.092500,0.333674
190.171875,0.331741
190.181875,0.380371
190.191875,0.432221
190.201875,0.340437
190.265625,0.367811
190.275625,0.351387
190.285625,0.425780
190.295625,0.376184
